,acc_x,acc_y,acc_z,gyr_x,gyr_y,gyr_z,mag_x,mag_y,mag_z,asyncio_time
0,0.9873046875,0.556884765625,0.714599609375,-1.0534351145038168,-3.5572519083969465,44.29007633587786,-286.72,-53.76,-645.12,15986.035322378
1,1.1640625,0.236572265625,0.5869140625,11.31297709923664,10.717557251908396,7.343511450381679,-302.08,-53.76,-624.64,15986.124712481
2,0.611083984375,0.422607421875,0.361328125,2.5038167938931295,40.916030534351144,-38.38167938931298,-299.52,-66.56,-614.4,15986.215643835
3,0.795166015625,0.283203125,0.3525390625,-0.33587786259541985,-13.236641221374045,6.33587786259542,-279.04,-79.36,-622.08,15986.303823184
4,0.980224609375,0.36962890625,0.456298828125,-14.106870229007633,-34.54961832061068,7.0534351145038165,-271.36,-84.48,-616.96,15986.395124166
5,0.980224609375,0.36962890625,0.456298828125,-14.106870229007633,-34.54961832061068,7.0534351145038165,-271.36,-84.48,-616.96,15986.484782428
6,0.93505859375,0.474853515625,0.570068359375,-30.595419847328245,53.70992366412214,-29.419847328244273,-273.92,-81.92,-609.28,15986.573876103
7,0.920166015625,0.313720703125,0.28125,-13.526717557251908,0.8244274809160305,-7.083969465648854,-256.0,-125.44,-599.04,15986.665409087
8,1.02587890625,0.174072265625,0.222900390625,-23.236641221374043,-11.053435114503817,-11.358778625954198,-253.44,-135.68,-593.92,15986.754630316
9,1.189697265625,0.41552734375,0.340576171875,-33.38931297709924,-74.97709923664122,15.618320610687022,-248.32,-148.48,-588.8000000000001,15986.845635026
10,1.02587890625,0.36865234375,0.247802734375,-33.862595419847324,-21.63358778625954,-81.54198473282442,-250.88,-138.24,-588.8000000000001,15986.935005279
11,0.842529296875,0.47900390625,0.1806640625,-65.26717557251908,-58.33587786259542,-89.77099236641222,-227.84,-138.24,-609.28,15987.024530076
12,0.576416015625,0.44140625,0.10009765625,-99.32824427480915,-100.3969465648855,-32.900763358778626,-227.84,-138.24,-609.28,15987.115354804
13,0.576416015625,0.44140625,0.10009765625,-99.32824427480915,-100.3969465648855,-32.900763358778626,-204.8,-140.8,-627.2,15987.205270679
14,0.47021484375,0.567626953125,0.513916015625,-64.9618320610687,-46.44274809160305,-50.62595419847328,-215.04,-153.6,-614.4,15987.295725545
15,0.751953125,0.635986328125,0.622802734375,-7.755725190839694,28.610687022900763,-14.473282442748092,-204.8,-171.52,-611.84,15987.38517502
16,0.619384765625,0.691162109375,0.7265625,30.519083969465647,75.6793893129771,12.473282442748092,-197.12,-179.20000000000002,-609.28,15987.475586705
17,0.60888671875,0.736083984375,0.51708984375,33.358778625954194,65.78625954198473,31.12977099236641,-194.56,-176.64000000000001,-601.6,15987.564925705
18,0.703369140625,0.601806640625,0.375,22.3206106870229,-2.2900763358778624,62.595419847328245,-192.0,-176.64000000000001,-599.04,15987.655709527
19,0.6064453125,0.618408203125,0.1845703125,6.061068702290076,28.641221374045802,11.511450381679388,-220.16,-166.4,-573.44,15987.745046669
20,0.6064453125,0.618408203125,0.1845703125,6.061068702290076,28.641221374045802,11.511450381679388,-220.16,-166.4,-573.44,15987.835301322
21,0.64599609375,0.736572265625,0.296630859375,-7.435114503816793,13.618320610687022,11.038167938931297,-217.6,-174.08,-563.2,15987.925044325
22,0.7626953125,0.6669921875,0.4287109375,-11.435114503816793,65.43511450381679,-26.47328244274809,-217.6,-192.0,-537.6,15988.014468934
23,0.933349609375,0.62841796875,0.5517578125,-22.015267175572518,26.30534351145038,-11.84732824427481,-197.12,-212.48000000000002,-529.92,15988.104571257
24,0.93505859375,0.5947265625,0.313232421875,-30.442748091603054,-32.12213740458015,-21.603053435114504,-207.36,-227.84,-494.08,15988.194611605
25,0.83056640625,0.588134765625,0.19287109375,-51.587786259541986,-86.03053435114504,-16.412213740458014,-250.88,-209.92000000000002,-465.92,15988.285428491
26,0.9208984375,0.61328125,0.15576171875,-55.48091603053435,-47.83206106870229,-0.5038167938931297,-281.6,-194.56,-453.12,15988.374101892
27,0.677490234375,0.489501953125,0.378173828125,-34.74809160305343,17.053435114503817,5.83206106870229,-320.0,-189.44,-424.96000000000004,15988.465414105
28,0.677490234375,0.489501953125,0.378173828125,-34.74809160305343,17.053435114503817,5.83206106870229,-320.0,-189.44,-424.96000000000004,15988.554497442
29,0.743896484375,0.365966796875,0.366455078125,-32.97709923664122,-26.9618320610687,2.931297709923664,-330.24,-199.68,-412.16,15988.64558447
30,0.76611328125,0.548095703125,0.417724609375,-34.732824427480914,-5.679389312977099,-43.63358778625954,-363.52,-192.0,-407.04,15988.735626712
31,0.804931640625,0.77587890625,0.479736328125,-11.404580152671755,34.94656488549618,-35.23664122137404,-381.44,-189.44,-412.16,15988.825298311
32,0.755126953125,0.599853515625,0.346435546875,-10.580152671755725,-7.343511450381679,-12.396946564885496,-419.84000000000003,-174.08,-417.28000000000003,15988.959032739
33,0.9072265625,0.302734375,0.21630859375,14.15267175572519,-20.198473282442748,-32.29007633587786,-442.88,-151.04,-427.52,15989.050224528
34,1.03515625,0.41064453125,0.30517578125,-11.435114503816793,-33.11450381679389,-2.5343511450381677,-473.6,-81.92,-483.84000000000003,15989.140209443
35,0.908935546875,0.563720703125,0.327392578125,-33.14503816793893,-3.8167938931297707,12.625954198473282,-488.96000000000004,-51.2,-499.2,15989.230270938
36,0.796142578125,0.52001953125,0.37060546875,-49.52671755725191,-18.045801526717558,0.7022900763358778,-506.88,-51.2,-514.5600000000001,15989.318814787
37,0.6396484375,0.355712890625,0.39453125,-28.793893129770993,5.847328244274809,24.290076335877863,-514.5600000000001,-64.0,-514.5600000000001,15989.410602627
38,0.573974609375,0.55322265625,0.43798828125,3.9236641221374042,-25.725190839694655,23.267175572519083,-514.5600000000001,-104.96000000000001,-509.44,15989.500254137
39,0.573974609375,0.55322265625,0.43798828125,3.9236641221374042,-25.725190839694655,23.267175572519083,-514.5600000000001,-104.96000000000001,-509.44,15989.589275864
40,0.858642578125,0.355224609375,0.450439453125,-6.381679389312977,-13.389312977099236,-11.98473282442748,-522.24,-94.72,-496.64,15989.680680931
41,0.830078125,0.68017578125,0.544921875,28.610687022900763,-12.427480916030534,41.89312977099237,-512.0,-97.28,-504.32,15989.769257184
42,0.80859375,0.529296875,0.089599609375,5.32824427480916,6.045801526717557,-12.48854961832061,-519.6800000000001,-71.68,-471.04,15989.860614936
43,0.61669921875,0.567138671875,0.0712890625,-34.79389312977099,28.259541984732824,-61.95419847328244,-512.0,-74.24,-473.6,15989.949991447
44,1.029296875,0.369140625,0.255615234375,-16.030534351145036,-47.45038167938931,0.33587786259541985,-494.08,-87.04,-478.72,15990.040697321
45,0.965087890625,0.377685546875,0.152099609375,-12.793893129770991,-7.236641221374046,11.755725190839694,-499.2,-64.0,-471.04,15990.130491355
46,0.690673828125,0.369873046875,0.02099609375,-42.732824427480914,10.473282442748092,-13.236641221374045,-506.88,-48.64,-455.68,15990.220239812
47,0.690673828125,0.369873046875,0.02099609375,-42.732824427480914,10.473282442748092,-13.236641221374045,-506.88,-48.64,-455.68,15990.308783932
48,0.730712890625,0.439453125,0.5888671875,-4.7328244274809155,46.12213740458015,-23.954198473282442,-504.32,-69.12,-460.8,15990.400232448
49,1.288818359375,0.234375,0.499267578125,-1.3740458015267174,1.465648854961832,22.213740458015266,-514.5600000000001,-66.56,-450.56,15990.490276106
50,0.847412109375,0.3583984375,0.203857421875,-45.343511450381676,2.854961832061069,-28.85496183206107,-527.36,-46.08,-442.88,15990.579282703
51,0.939453125,0.295654296875,0.293701171875,-36.0763358778626,-54.977099236641216,4.122137404580153,-532.48,-28.16,-471.04,15990.670328981
52,0.684326171875,0.396728515625,0.190185546875,-54.70229007633588,-26.229007633587784,-43.29770992366412,-540.16,2.56,-476.16,15990.759203036
53,1.00634765625,0.690673828125,0.430419921875,-68.04580152671755,-11.98473282442748,33.20610687022901,-506.88,25.6,-555.52,15990.850360597
54,0.980224609375,0.4443359375,0.315185546875,-49.52671755725191,-30.702290076335878,-16.35114503816794,-506.88,25.6,-555.52,15990.940522571
55,0.980224609375,0.4443359375,0.315185546875,-49.52671755725191,-30.702290076335878,-16.35114503816794,-509.44,17.92,-550.4,15991.029144208
56,0.808837890625,0.307373046875,0.254638671875,-38.01526717557252,7.007633587786259,-29.404580152671755,-496.64,17.92,-583.6800000000001,15991.119398091
57,0.72998046875,0.39697265625,0.321533203125,-28.702290076335878,-2.8244274809160306,-17.526717557251906,-473.6,-5.12,-611.84,15991.210553762
58,0.884521484375,0.425048828125,0.31591796875,-17.083969465648853,-15.465648854961831,13.083969465648854,-468.48,-10.24,-614.4,15991.300446093
59,0.854248046875,0.46826171875,0.280029296875,-17.12977099236641,-5.374045801526718,16.16793893129771,-471.04,-15.36,-599.04,15991.389430244
60,0.77294921875,0.471923828125,0.43798828125,-23.022900763358777,17.435114503816795,-11.923664122137405,-478.72,-25.6,-581.12,15991.480746454
61,0.86669921875,0.43212890625,0.46923828125,6.229007633587786,14.534351145038167,18.213740458015266,-476.16,-53.76,-573.44,15991.569663866
62,0.86669921875,0.43212890625,0.46923828125,6.229007633587786,14.534351145038167,18.213740458015266,-476.16,-53.76,-573.44,15991.660682488
63,0.87060546875,0.388671875,0.415283203125,3.847328244274809,-8.320610687022901,12.229007633587786,-481.28000000000003,-53.76,-560.64,15991.749385467
64,0.793701171875,0.437255859375,0.412841796875,2.1374045801526718,-9.450381679389313,2.0763358778625953,-486.40000000000003,-43.52,-542.72,15991.840800054
65,0.761962890625,0.4609375,0.452880859375,-0.732824427480916,4.687022900763359,-10.99236641221374,-488.96000000000004,-40.96,-542.72,15991.930372398
66,0.760986328125,0.44677734375,0.427001953125,6.763358778625954,5.633587786259541,-8.625954198473282,-486.40000000000003,-38.4,-542.72,15992.020361748
67,0.819091796875,0.445556640625,0.41845703125,8.320610687022901,-3.1755725190839694,-3.0839694656488548,-486.40000000000003,-35.84,-547.84,15992.109579697
68,0.840576171875,0.44775390625,0.351806640625,-3.9541984732824424,5.862595419847328,0.8091603053435115,-488.96000000000004,-23.04,-545.28,15992.199784039
69,0.82568359375,0.502197265625,0.400146484375,4.595419847328244,8.290076335877862,-3.877862595419847,-486.40000000000003,-25.6,-545.28,15992.289016584
70,0.82568359375,0.502197265625,0.400146484375,4.595419847328244,8.290076335877862,-3.877862595419847,-486.40000000000003,-25.6,-545.28,15992.378984783
71,0.820556640625,0.436279296875,0.349365234375,-8.580152671755725,7.480916030534351,-5.480916030534351,-488.96000000000004,-25.6,-542.72,15992.470719909
72,0.803955078125,0.464599609375,0.3876953125,-6.213740458015267,9.603053435114504,-9.572519083969466,-486.40000000000003,-28.16,-545.28,15992.559138496
73,0.832275390625,0.43798828125,0.40673828125,-0.564885496183206,1.2366412213740459,-0.4580152671755725,-481.28000000000003,-33.28,-552.96,15992.64916998
74,0.8701171875,0.4443359375,0.385498046875,-4.534351145038168,3.7557251908396947,-1.6030534351145038,-483.84000000000003,-28.16,-547.84,15992.740450354
75,0.79052734375,0.457275390625,0.3681640625,-2.4580152671755724,-0.7938931297709924,-1.099236641221374,-483.84000000000003,-30.72,-550.4,15992.830735713
76,0.81591796875,0.476318359375,0.376220703125,-9.34351145038168,5.755725190839694,-2.2442748091603053,-483.84000000000003,-25.6,-545.28,15992.920312096
77,0.763671875,0.49755859375,0.367431640625,-6.702290076335878,1.0229007633587786,-3.5267175572519083,-483.84000000000003,-28.16,-545.28,15993.055095257
78,0.745849609375,0.519287109375,0.3583984375,-18.610687022900763,-5.083969465648854,13.374045801526718,-483.84000000000003,-28.16,-542.72,15993.144130484
79,0.81640625,0.53076171875,0.291015625,-22.015267175572518,-28.931297709923662,20.870229007633586,-486.40000000000003,-25.6,-529.92,15993.235256055
80,0.87353515625,0.508056640625,0.301025390625,-8.0,-29.526717557251906,43.43511450381679,-501.76,0.0,-481.28000000000003,15993.323935247
81,0.87353515625,0.508056640625,0.301025390625,-8.0,-29.526717557251906,43.43511450381679,-501.76,0.0,-481.28000000000003,15993.415263744
82,1.189208984375,0.359130859375,0.005615234375,77.93893129770991,-63.725190839694655,79.19083969465649,-514.5600000000001,20.48,-440.32,15993.505815061
83,0.904296875,0.330078125,0.106201171875,3.0839694656488548,0.4580152671755725,18.045801526717558,-524.8,81.92,-355.84000000000003,15993.597775902
84,0.90625,0.251708984375,0.238037109375,9.755725190839694,22.15267175572519,6.534351145038167,-524.8,84.48,-337.92,15993.68538051
85,0.95751953125,0.305908203125,0.302978515625,26.183206106870227,28.839694656488547,-16.549618320610687,-524.8,69.12,-294.40000000000003,15993.774483933
86,1.02001953125,0.286376953125,0.346435546875,26.12213740458015,37.89312977099237,-11.694656488549619,-524.8,53.76,-286.72,15993.865771672
87,1.05224609375,0.23046875,0.2431640625,50.88549618320611,3.7862595419847325,29.63358778625954,-527.36,23.04,-271.36,15993.954465479
88,0.857421875,0.299072265625,0.280029296875,33.74045801526717,19.557251908396946,15.84732824427481,-529.92,20.48,-250.88,15994.045643293
89,0.857421875,0.299072265625,0.280029296875,33.74045801526717,19.557251908396946,15.84732824427481,-529.92,20.48,-250.88,15994.134184254
90,0.98291015625,0.17822265625,0.4345703125,44.778625954198475,9.083969465648854,9.16030534351145,-540.16,7.68,-243.20000000000002,15994.22525523
91,1.01171875,0.31640625,0.417236328125,59.908396946564885,-0.183206106870229,41.63358778625954,-558.08,5.12,-225.28,15994.315144577
92,0.85400390625,0.3828125,0.24609375,41.847328244274806,42.79389312977099,-0.8549618320610687,-565.76,10.24,-199.68,15994.404280076
93,0.8701171875,0.054931640625,0.093505859375,40.5648854961832,42.19847328244275,-15.81679389312977,-581.12,-7.68,-158.72,15994.495629065
94,0.624755859375,0.087158203125,0.087158203125,50.61068702290076,-30.030534351145036,-65.93893129770993,-586.24,-56.32,-168.96,15994.584393526
95,1.24169921875,0.118408203125,0.25048828125,55.26717557251908,0.04580152671755725,7.908396946564885,-596.48,-56.32,-184.32,15994.675783284
96,1.30126953125,0.296630859375,0.418701171875,55.26717557251908,0.04580152671755725,7.908396946564885,-596.48,-56.32,-184.32,15994.764006105
97,1.30126953125,0.296630859375,0.418701171875,60.38167938931297,20.717557251908396,28.9618320610687,-599.04,-64.0,-176.64000000000001,15994.85530603
98,0.820068359375,0.1533203125,0.026611328125,47.32824427480916,29.49618320610687,6.702290076335878,-606.72,-74.24,-153.6,15994.945953259
99,0.657470703125,0.329833984375,0.151123046875,28.9618320610687,19.34351145038168,-35.847328244274806,-609.28,-94.72,-168.96,15995.035254207
100,0.986572265625,0.26611328125,-0.093994140625,9.083969465648854,7.541984732824427,9.450381679389313,-624.64,-84.48,-230.4,15995.125298287
101,0.97607421875,0.34912109375,0.04150390625,-22.3206106870229,50.54961832061068,0.9312977099236641,-624.64,-94.72,-232.96,15995.215197784
102,0.64111328125,0.164306640625,0.139892578125,-33.55725190839694,49.587786259541986,-56.83969465648855,-611.84,-143.36,-256.0,15995.350677327
103,0.9892578125,0.25830078125,0.24169921875,-16.549618320610687,8.274809160305344,-26.65648854961832,-596.48,-179.20000000000002,-302.08,15995.440260043
104,1.09716796875,0.26025390625,-0.185546875,-102.45801526717557,-18.885496183206108,-49.74045801526717,-570.88,-194.56,-345.6,15995.529958796
105,1.150634765625,0.087890625,0.1083984375,-128.06106870229007,-56.80916030534351,-32.68702290076336,-547.84,-220.16,-345.6,15995.61981154
106,0.93994140625,-0.063720703125,0.167724609375,-174.53435114503816,-46.534351145038165,-82.03053435114504,-550.4,-217.6,-325.12,15995.710813982
107,0.971923828125,0.019287109375,0.241943359375,-170.15267175572518,-76.03053435114504,-117.51145038167938,-550.4,-217.6,-325.12,15995.799603033
108,0.971923828125,0.019287109375,0.241943359375,-170.15267175572518,-76.03053435114504,-117.51145038167938,-560.64,-197.12,-343.04,15995.8907758
109,1.3388671875,-0.09716796875,0.239990234375,-147.81679389312976,-76.18320610687023,-96.53435114503816,-573.44,-168.96,-360.96,15995.979240953
110,1.1337890625,-0.10498046875,0.25048828125,-158.94656488549617,-155.78625954198472,-69.86259541984732,-593.92,-71.68,-424.96000000000004,15996.070636726
111,1.090087890625,0.077392578125,0.4130859375,-178.2442748091603,-134.45801526717557,-113.86259541984732,-588.8000000000001,0.0,-478.72,15996.159513171
112,1.236083984375,-0.01416015625,0.013427734375,-218.10687022900763,-114.47328244274809,-39.587786259541986,-535.04,94.72,-601.6,15996.339063656
113,0.95263671875,-0.0556640625,0.26220703125,-191.54198473282443,-104.13740458015266,-67.32824427480915,-440.32,-51.2,-739.84,15996.43071589
114,0.95263671875,-0.0556640625,0.26220703125,-191.54198473282443,-104.13740458015266,-67.32824427480915,-440.32,-51.2,-739.84,15996.519049752
115,0.84423828125,0.107177734375,0.134033203125,-209.00763358778624,-140.94656488549617,-68.97709923664122,-414.72,-120.32000000000001,-744.96,15996.609409244
116,1.12841796875,-0.037109375,0.2490234375,-211.40458015267174,-169.9236641221374,-80.47328244274809,-417.28000000000003,-225.28,-670.72,15996.78982448
117,1.244140625,-0.104248046875,0.4111328125,-251.63358778625954,-212.94656488549617,-77.05343511450381,-412.16,-230.4,-632.32,15996.880725965
118,1.18505859375,0.00341796875,0.57568359375,-253.22137404580153,-162.94656488549617,-93.46564885496183,-424.96000000000004,-235.52,-593.92,15996.970130186
119,1.130859375,-0.102783203125,0.431884765625,-250.8854961832061,-128.9770992366412,-82.50381679389312,-468.48,-248.32,-496.64,15997.060285418
120,0.904541015625,-0.03662109375,0.357421875,-234.71755725190837,-161.22137404580153,-79.23664122137404,-535.04,-197.12,-422.40000000000003,15997.149182401
121,0.904541015625,-0.03662109375,0.357421875,-234.71755725190837,-161.22137404580153,-79.23664122137404,-535.04,-197.12,-422.40000000000003,15997.240326242
122,0.877197265625,0.17822265625,0.2021484375,-217.206106870229,-168.53435114503816,-79.55725190839695,-560.64,-156.16,-412.16,15997.374063555
123,0.9248046875,0.235595703125,0.510009765625,-164.82442748091603,-122.51908396946564,-44.167938931297705,-583.6800000000001,2.56,-491.52,15997.465372352
124,0.9248046875,0.235595703125,0.510009765625,-164.82442748091603,-122.51908396946564,-44.167938931297705,-583.6800000000001,2.56,-491.52,15997.554435712
125,0.73681640625,0.354248046875,0.29638671875,-106.82442748091603,-104.61068702290076,-14.549618320610687,-550.4,69.12,-573.44,15997.645685892
126,0.844970703125,0.387939453125,0.35693359375,-93.45038167938931,-66.74809160305344,-26.3206106870229,-535.04,79.36,-604.16,15997.734468255
127,0.49951171875,0.538818359375,0.3876953125,-58.01526717557252,-42.97709923664122,22.458015267175572,-488.96000000000004,38.4,-683.52,15997.870353646
128,0.49951171875,0.538818359375,0.3876953125,-58.01526717557252,-42.97709923664122,22.458015267175572,-488.96000000000004,38.4,-683.52,15997.960028791
129,0.740234375,0.21630859375,0.0556640625,-45.61832061068702,-63.587786259541986,21.114503816793892,-501.76,35.84,-668.16,15998.050294374
130,0.876708984375,0.622314453125,0.320068359375,-45.221374045801525,-41.725190839694655,19.267175572519083,-501.76,33.28,-665.6,15998.139497411
131,1.040771484375,0.626708984375,0.33056640625,-50.07633587786259,-58.595419847328245,7.8473282442748085,-509.44,15.36,-642.5600000000001,15998.230286746
132,0.949951171875,0.540771484375,0.335205078125,-14.931297709923664,-1.9083969465648853,35.23664122137404,-522.24,25.6,-624.64,15998.32061551
133,0.69970703125,0.142578125,0.144775390625,20.48854961832061,35.587786259541986,34.99236641221374,-560.64,30.72,-555.52,15998.410601835
134,0.79931640625,-0.029296875,0.178955078125,-2.2748091603053435,-10.748091603053435,14.274809160305344,-565.76,2.56,-522.24,15998.500271659
135,0.79931640625,-0.029296875,0.178955078125,-2.2748091603053435,-10.748091603053435,14.274809160305344,-565.76,2.56,-522.24,15998.589445557
136,1.11767578125,0.124267578125,0.4111328125,4.183206106870228,23.954198473282442,-4.458015267175572,-563.2,-5.12,-504.32,15998.680043168
137,1.29296875,0.31298828125,0.327880859375,34.42748091603053,41.93893129770992,-16.900763358778626,-542.72,-30.72,-496.64,15998.769241232
138,1.0927734375,0.267822265625,0.018310546875,-13.053435114503817,35.05343511450381,14.610687022900763,-537.6,-30.72,-491.52,15998.860695504
139,0.944091796875,-0.036865234375,0.1396484375,-21.557251908396946,17.938931297709924,-39.31297709923664,-527.36,-69.12,-465.92,15998.994522367
140,0.939697265625,0.065185546875,0.09814453125,-23.099236641221374,57.31297709923664,-25.709923664122137,-509.44,-79.36,-488.96000000000004,15999.085272369
141,0.943115234375,0.31884765625,0.213623046875,-32.0763358778626,2.198473282442748,-2.4427480916030535,-465.92,-135.68,-486.40000000000003,15999.175166627
142,0.76025390625,0.28076171875,0.356201171875,-62.44274809160305,3.4045801526717554,-7.816793893129771,-453.12,-156.16,-471.04,15999.265323235
143,0.661865234375,-0.037841796875,0.35107421875,-70.32061068702289,23.358778625954198,1.7557251908396947,-437.76,-220.16,-409.6,15999.354016884
144,0.570068359375,0.284912109375,0.40234375,-49.05343511450381,-19.43511450381679,-71.78625954198473,-432.64,-235.52,-373.76,15999.445738318
145,1.447998046875,0.09521484375,0.759033203125,-22.763358778625953,-70.97709923664122,-57.908396946564885,-424.96000000000004,-243.20000000000002,-350.72,15999.534875108
146,1.154541015625,0.204345703125,0.416015625,-22.763358778625953,-70.97709923664122,-57.908396946564885,-424.96000000000004,-243.20000000000002,-350.72,15999.625383735
147,1.154541015625,0.204345703125,0.416015625,26.183206106870227,-41.64885496183206,52.48854961832061,-445.44,-212.48000000000002,-360.96,15999.715351772
148,0.70166015625,-0.0634765625,0.252685546875,46.229007633587784,-18.076335877862594,31.00763358778626,-488.96000000000004,-158.72,-320.0,15999.850382467
149,1.249267578125,0.342529296875,0.507568359375,77.26717557251908,-16.85496183206107,43.358778625954194,-501.76,-53.76,-384.0,15999.9394463
150,1.249267578125,0.342529296875,0.507568359375,77.26717557251908,-16.85496183206107,43.358778625954194,-501.76,-53.76,-384.0,16000.075679258
151,0.401123046875,0.109619140625,0.406982421875,32.83969465648855,15.48091603053435,-34.900763358778626,-532.48,25.6,-350.72,16000.165679706
152,1.140869140625,0.10205078125,0.739013671875,92.01526717557252,51.160305343511446,8.595419847328245,-537.6,25.6,-363.52,16000.255276251
153,1.140869140625,0.10205078125,0.739013671875,92.01526717557252,51.160305343511446,8.595419847328245,-537.6,25.6,-363.52,16000.344210631
154,1.407958984375,0.300537109375,0.034912109375,76.41221374045801,14.167938931297709,61.23664122137404,-545.28,10.24,-360.96,16000.435366202
155,0.7099609375,0.43505859375,0.06982421875,32.76335877862595,26.198473282442748,-3.541984732824427,-565.76,-12.8,-322.56,16000.525237588
156,0.7099609375,-0.077392578125,0.125244140625,-0.549618320610687,21.404580152671755,-89.93893129770991,-568.32,-35.84,-322.56,16000.659044433
157,1.643798828125,-0.29638671875,0.11767578125,10.305343511450381,-19.389312977099237,16.641221374045802,-550.4,-66.56,-358.40000000000003,16000.748942663
158,1.3896484375,0.29248046875,0.315673828125,-44.534351145038165,5.32824427480916,-65.74045801526718,-540.16,-64.0,-363.52,16000.840686876
159,0.55322265625,0.080078125,0.526611328125,5.450381679389313,38.01526717557252,-97.31297709923663,-488.96000000000004,-94.72,-448.0,16000.929894159
160,0.173828125,0.341796875,0.145263671875,30.0,56.29007633587786,-62.76335877862595,-445.44,-92.16,-506.88,16001.020039323
161,1.067138671875,-0.172607421875,0.239013671875,10.580152671755725,-131.32824427480915,19.14503816793893,-384.0,-69.12,-550.4,16001.11079085
162,0.927001953125,0.598388671875,0.642822265625,20.610687022900763,52.94656488549618,13.099236641221374,-389.12,-5.12,-529.92,16001.200164141
163,1.126953125,-0.055419921875,0.078125,34.091603053435115,18.62595419847328,33.87786259541985,-396.8,10.24,-453.12,16001.290508009
164,1.126953125,-0.055419921875,0.078125,34.091603053435115,18.62595419847328,33.87786259541985,-396.8,10.24,-453.12,16001.380586975
165,0.54443359375,0.4765625,0.190673828125,12.99236641221374,16.16793893129771,-54.213740458015266,-394.24,20.48,-448.0,16001.470372292
166,1.3876953125,-0.06298828125,0.48486328125,25.114503816793892,-34.916030534351144,41.17557251908397,-368.64,20.48,-432.64,16001.559841631
167,0.81884765625,0.107177734375,0.48095703125,51.45038167938931,3.679389312977099,41.14503816793893,-381.44,58.88,-358.40000000000003,16001.650342931
168,0.699951171875,0.166259765625,0.45263671875,35.06870229007633,44.9618320610687,-5.465648854961832,-389.12,64.0,-327.68,16001.739841526
169,0.859619140625,0.221923828125,0.571044921875,90.93129770992365,29.48091603053435,18.12213740458015,-394.24,43.52,-307.2,16001.830811302
170,1.187255859375,0.27197265625,0.79345703125,99.87786259541984,24.27480916030534,88.97709923664122,-399.36,43.52,-273.92,16001.920703704
171,0.721435546875,0.19287109375,0.442138671875,74.16793893129771,17.12977099236641,43.29770992366412,-401.92,25.6,-181.76,16002.00987066
172,0.721435546875,0.19287109375,0.442138671875,74.16793893129771,17.12977099236641,43.29770992366412,-401.92,25.6,-181.76,16002.100728124
173,0.75,0.0380859375,0.31689453125,86.8854961832061,14.717557251908396,11.511450381679388,-401.92,7.68,-151.04,16002.189342553
174,0.84228515625,0.208984375,0.288330078125,59.80152671755725,-0.3511450381679389,7.068702290076335,-401.92,-33.28,-128.0,16002.280640603
175,1.269775390625,0.143798828125,0.31884765625,37.17557251908397,0.366412213740458,20.595419847328245,-399.36,-46.08,-115.2,16002.369588267
176,1.605712890625,-0.306396484375,0.338134765625,49.282442748091604,-8.82442748091603,9.511450381679388,-394.24,-64.0,-69.12,16002.460309249
177,1.087890625,-0.04052734375,0.476318359375,59.38931297709924,8.82442748091603,-17.389312977099237,-401.92,-76.8,-71.68,16002.549319906
178,0.576904296875,0.203857421875,0.2705078125,52.45801526717557,63.29770992366412,-53.14503816793893,-419.84000000000003,-117.76,-112.64,16002.64069628
179,0.81982421875,0.24853515625,0.26220703125,30.99236641221374,32.18320610687023,-23.450381679389313,-417.28000000000003,-153.6,-145.92000000000002,16002.730790793
180,0.81982421875,0.24853515625,0.26220703125,30.99236641221374,32.18320610687023,-23.450381679389313,-417.28000000000003,-153.6,-145.92000000000002,16002.819314234
181,1.183349609375,0.31494140625,0.42138671875,52.091603053435115,66.50381679389312,-30.366412213740457,-407.04,-209.92000000000002,-189.44,16002.91067491
182,0.80859375,0.5126953125,0.717041015625,64.94656488549619,49.46564885496183,0.030534351145038167,-350.72,-302.08,-284.16,16002.999629729
183,0.552490234375,0.26953125,0.353515625,22.412213740458014,35.02290076335878,-13.16030534351145,-350.72,-309.76,-307.2,16003.090765318
184,0.514892578125,0.367431640625,0.435791015625,32.2442748091603,68.32061068702289,4.396946564885496,-325.12,-345.6,-320.0,16003.17977597
185,0.546875,0.50439453125,0.5185546875,19.14503816793893,71.70992366412213,-14.80916030534351,-286.72,-373.76,-330.24,16003.270302382
186,0.7412109375,0.635009765625,0.567626953125,23.49618320610687,-12.122137404580153,46.83969465648855,-217.6,-414.72,-350.72,16003.359343039
187,0.593994140625,0.96533203125,0.567626953125,23.49618320610687,-12.122137404580153,46.83969465648855,-217.6,-414.72,-350.72,16003.450265193
188,0.593994140625,0.96533203125,0.567626953125,7.816793893129771,35.41984732824427,-27.66412213740458,-217.6,-412.16,-355.84000000000003,16003.539505633
189,0.690673828125,0.253662109375,0.628662109375,15.129770992366412,-119.43511450381679,54.167938931297705,-207.36,-414.72,-373.76,16003.629695761
190,0.794677734375,0.052001953125,0.377197265625,23.923664122137403,-33.02290076335878,62.9618320610687,-266.24,-386.56,-358.40000000000003,16003.720738102
191,0.528564453125,0.279541015625,0.451416015625,13.450381679389313,28.885496183206104,7.2824427480916025,-286.72,-373.76,-345.6,16003.809831567
192,0.725341796875,0.2587890625,0.525146484375,77.54198473282442,-1.3893129770992365,87.89312977099236,-276.48,-378.88,-348.16,16003.900755545
193,0.67333984375,0.049072265625,0.263671875,132.62595419847327,-27.450381679389313,81.14503816793894,-299.52,-345.6,-373.76,16003.990622901
194,0.92529296875,0.056396484375,0.34912109375,134.5648854961832,82.13740458015266,24.229007633587784,-312.32,-317.44,-401.92,16004.080576749
195,0.92529296875,0.056396484375,0.34912109375,134.5648854961832,82.13740458015266,24.229007633587784,-312.32,-317.44,-401.92,16004.17026312
196,1.072265625,-0.074951171875,0.4287109375,61.20610687022901,58.13740458015267,30.931297709923662,-243.20000000000002,-309.76,-486.40000000000003,16004.260351167
197,1.27734375,0.013427734375,0.687744140625,-40.030534351145036,36.65648854961832,46.82442748091603,-217.6,-304.64,-506.88,16004.349026922
198,0.813720703125,0.186767578125,0.9189453125,44.229007633587784,72.2442748091603,-48.18320610687023,-161.28,-314.88,-529.92,16004.440361553
199,0.9443359375,0.450439453125,0.9755859375,116.93129770992365,110.41221374045801,-137.43511450381678,-28.16,-289.28000000000003,-627.2,16004.530770667
200,0.314208984375,0.809814453125,0.861572265625,85.2824427480916,88.77862595419847,-143.70992366412213,92.16,-240.64000000000001,-688.64,16004.619877777
201,-0.01513671875,0.82177734375,0.393798828125,118.15267175572518,297.09923664122135,-283.1145038167939,348.16,-84.48,-686.08,16004.709022815
202,-0.566650390625,0.725341796875,-0.053955078125,117.25190839694656,214.0916030534351,-216.93129770992365,481.28000000000003,56.32,-578.5600000000001,16004.799047816
203,-0.566650390625,0.725341796875,-0.053955078125,117.25190839694656,214.0916030534351,-216.93129770992365,481.28000000000003,56.32,-578.5600000000001,16004.890389255
204,-0.78173828125,0.452392578125,-0.364501953125,94.21374045801527,202.18320610687022,-219.8473282442748,496.64,296.96,-294.40000000000003,16004.980039207
205,-0.8369140625,0.236572265625,-0.43359375,62.167938931297705,188.76335877862596,-156.9770992366412,412.16,381.44,-158.72,16005.07037822
206,-0.551513671875,-0.01220703125,-0.659423828125,43.83206106870229,151.8625954198473,-94.90076335877862,174.08,455.68,0.0,16005.159317666
207,-0.138427734375,0.00537109375,-0.544677734375,75.81679389312977,164.15267175572518,28.519083969465647,66.56,463.36,25.6,16005.250382121
208,0.01171875,-0.22802734375,-0.898681640625,46.091603053435115,132.04580152671755,-8.091603053435113,-102.4,396.8,104.96000000000001,16005.339091451
209,0.170654296875,-0.346435546875,-1.00927734375,34.0763358778626,112.19847328244275,75.69465648854961,-166.4,345.6,133.12,16005.429263409
210,0.27099609375,-0.531494140625,-0.812255859375,78.7328244274809,159.6946564885496,33.57251908396947,-204.8,220.16,215.04,16005.520715594
211,0.27099609375,-0.531494140625,-0.812255859375,78.7328244274809,159.6946564885496,33.57251908396947,-204.8,220.16,215.04,16005.609571765
212,0.469970703125,-0.612060546875,-0.340087890625,79.2824427480916,196.50381679389312,46.12213740458015,-220.16,135.68,243.20000000000002,16005.700308535
213,0.525634765625,-0.676025390625,-0.263427734375,10.381679389312977,127.74045801526717,38.51908396946565,-184.32,-23.04,276.48,16005.790176075
214,0.48974609375,-0.83203125,-0.268798828125,-33.26717557251908,90.42748091603053,114.10687022900763,-145.92000000000002,-84.48,304.64,16005.880956278
215,0.535400390625,-1.054931640625,-0.102294921875,-76.68702290076335,58.42748091603053,92.51908396946564,15.36,-53.76,322.56,16005.969236063
216,0.30517578125,-0.91162109375,-0.26611328125,-23.099236641221374,72.91603053435114,53.404580152671755,112.64,-7.68,325.12,16006.059892971
217,0.32666015625,-1.037353515625,-0.468994140625,-55.38931297709924,59.175572519083964,14.015267175572518,143.36,10.24,320.0,16006.1494313
218,0.32666015625,-1.037353515625,-0.468994140625,-55.38931297709924,59.175572519083964,14.015267175572518,143.36,10.24,320.0,16006.239829545
219,0.1806640625,-0.98095703125,-0.604736328125,-199.8625954198473,187.12977099236642,5.709923664122138,148.48,161.28,299.52,16006.329057966
220,0.2041015625,-0.635498046875,-0.476318359375,-271.0687022900763,266.62595419847327,-12.839694656488549,102.4,299.52,235.52,16006.420540296
221,0.73486328125,-0.51416015625,-0.099365234375,-244.4732824427481,227.06870229007632,29.038167938931295,-145.92000000000002,463.36,-30.72,16006.510842207
222,0.91650390625,-0.6103515625,-0.015380859375,-306.87022900763355,197.98473282442748,-13.206106870229007,-263.68,440.32,-156.16,16006.599497205
223,0.789794921875,-0.43115234375,-0.117919921875,-297.3893129770992,167.55725190839695,-60.534351145038165,-422.40000000000003,243.20000000000002,-435.2,16006.690375609
224,0.775146484375,-0.16455078125,0.381103515625,-219.4503816793893,126.77862595419847,19.862595419847327,-430.08,81.92,-529.92,16006.778996955
225,0.885009765625,-0.172607421875,0.427001953125,-132.5801526717557,123.08396946564885,-67.23664122137404,-394.24,-166.4,-514.5600000000001,16006.870350861
226,0.885009765625,-0.172607421875,0.427001953125,-132.5801526717557,123.08396946564885,-67.23664122137404,-394.24,-166.4,-514.5600000000001,16006.959494068
227,0.782958984375,-0.06005859375,0.71337890625,-70.74809160305344,89.3587786259542,-71.29770992366412,-340.48,-256.0,-501.76,16007.050839553
228,0.689208984375,-0.02880859375,0.92333984375,99.49618320610686,127.05343511450381,-37.603053435114504,-220.16,-343.04,-509.44,16007.14073545
229,0.525390625,0.4150390625,1.35205078125,276.0458015267175,233.55725190839695,-206.03053435114504,-140.8,-337.92,-576.0,16007.2305913
230,0.041015625,0.69384765625,1.079345703125,129.64885496183206,60.68702290076336,-79.48091603053435,153.6,-174.08,-744.96,16007.319095566
231,-0.12255859375,0.8017578125,0.504638671875,95.43511450381679,65.69465648854961,-133.40458015267174,299.52,23.04,-739.84,16007.410933625
232,-0.352783203125,0.84619140625,0.75390625,119.98473282442748,44.2442748091603,-1.7251908396946565,360.96,51.2,-701.44,16007.500382432
233,-0.454833984375,0.805908203125,0.208740234375,16.68702290076336,5.32824427480916,-81.64885496183206,401.92,161.28,-642.5600000000001,16007.589870248
234,-0.454833984375,0.805908203125,0.208740234375,16.68702290076336,5.32824427480916,-81.64885496183206,401.92,161.28,-642.5600000000001,16007.680795328
235,-0.46875,0.774658203125,0.24560546875,48.87022900763358,17.63358778625954,-73.96946564885496,430.08,186.88,-601.6,16007.769326709
236,-0.482421875,0.635009765625,0.268310546875,42.94656488549618,6.229007633587786,-98.29007633587786,481.28000000000003,220.16,-512.0,16007.860830293
237,-0.6640625,0.414794921875,0.162109375,32.51908396946565,-42.732824427480914,-82.10687022900763,504.32,235.52,-442.88,16007.94988646
238,-0.705322265625,0.41650390625,0.0146484375,46.091603053435115,73.20610687022901,-59.541984732824424,532.48,238.08,-343.04,16008.039364465
239,-0.781494140625,0.357421875,0.076416015625,33.55725190839694,56.9618320610687,-107.20610687022901,514.5600000000001,279.04,-281.6,16008.130785992
240,-0.908935546875,0.316650390625,-0.15185546875,11.221374045801527,-11.923664122137405,-61.11450381679389,476.16,312.32,-153.6,16008.2193691
241,-1.056396484375,0.072021484375,-0.148681640625,33.61832061068702,-0.9923664122137404,-69.55725190839695,476.16,312.32,-153.6,16008.308960435
242,-1.056396484375,0.072021484375,-0.148681640625,33.61832061068702,-0.9923664122137404,-69.55725190839695,471.04,304.64,-117.76,16008.400463577
243,-1.163330078125,-0.057861328125,-0.136474609375,-3.145038167938931,-23.12977099236641,-94.09160305343511,450.56,286.72,-25.6,16008.490456631
244,-1.022705078125,-0.313720703125,-0.305419921875,-6.3206106870229,-0.9923664122137404,6.8396946564885495,432.64,281.6,15.36,16008.579371862
245,-0.466796875,-0.202880859375,-0.03369140625,-13.801526717557252,-27.66412213740458,-88.87022900763358,417.28000000000003,284.16,38.4,16008.670417618
246,-0.69580078125,-0.7041015625,-0.60107421875,59.89312977099237,16.580152671755723,-60.229007633587784,386.56,289.28000000000003,71.68,16008.760511971
247,-0.651611328125,-0.492431640625,0.054931640625,-3.709923664122137,-37.29770992366412,-44.01526717557252,332.8,266.24,138.24,16008.850392365
248,-0.952880859375,-0.48388671875,-0.01416015625,0.15267175572519084,2.9923664122137406,-68.91603053435114,284.16,243.20000000000002,184.32,16008.939535345
249,-0.952880859375,-0.48388671875,-0.01416015625,0.15267175572519084,2.9923664122137406,-68.91603053435114,284.16,243.20000000000002,184.32,16009.029083036
250,-0.868408203125,-0.644775390625,0.095947265625,16.732824427480914,-26.412213740458014,-99.2824427480916,245.76,235.52,209.92000000000002,16009.120830951
251,-0.701904296875,-0.85888671875,0.036865234375,8.900763358778626,-43.98473282442748,-126.65648854961832,151.04,199.68,261.12,16009.209871273
252,-0.54931640625,-1.021484375,0.139892578125,-4.137404580152672,-9.923664122137405,-92.45801526717557,84.48,207.36,268.8,16009.300601142
253,-0.274169921875,-1.135009765625,0.189208984375,3.099236641221374,-52.6412213740458,-168.59541984732823,-48.64,204.8,261.12,16009.389432644
254,0.06396484375,-0.910400390625,0.240966796875,-16.50381679389313,-80.44274809160305,-182.99236641221373,-138.24,215.04,232.96,16009.48075335
255,0.28564453125,-0.98876953125,-0.043212890625,-6.931297709923664,-57.02290076335878,-123.98473282442748,-263.68,258.56,130.56,16009.569333671
256,0.5625,-0.809326171875,0.131103515625,27.862595419847327,-51.541984732824424,-106.27480916030534,-294.40000000000003,279.04,84.48,16009.660699597
257,0.5625,-0.809326171875,0.131103515625,27.862595419847327,-51.541984732824424,-106.27480916030534,-294.40000000000003,279.04,84.48,16009.750671573
258,0.697265625,-0.826171875,0.097412109375,30.13740458015267,-36.10687022900763,-65.0381679389313,-337.92,299.52,2.56,16009.839908705
259,0.796142578125,-0.45751953125,0.06884765625,101.57251908396947,-69.38931297709924,-116.18320610687023,-343.04,307.2,-20.48,16009.930850738
260,0.8564453125,-0.570068359375,0.053466796875,114.32061068702289,-86.77862595419847,-85.22137404580153,-332.8,330.24,-40.96,16010.020542165
261,0.949951171875,-0.35888671875,0.022216796875,127.32824427480915,-88.70229007633587,-107.70992366412213,-317.44,343.04,-35.84,16010.110845896
262,0.944580078125,-0.202880859375,-0.138916015625,89.89312977099236,-33.49618320610687,-79.32824427480915,-309.76,348.16,-25.6,16010.199712329
263,0.78515625,-0.14453125,0.3994140625,77.48091603053435,3.66412213740458,-29.908396946564885,-327.68,320.0,-10.24,16010.29039313
264,2.620849609375,-0.90283203125,-1.02294921875,32.213740458015266,74.33587786259541,26.381679389312975,-340.48,291.84000000000003,12.8,16010.379559427
265,2.620849609375,-0.90283203125,-1.02294921875,32.213740458015266,74.33587786259541,26.381679389312975,-340.48,291.84000000000003,12.8,16010.46905368
266,1.009521484375,-0.06201171875,0.000244140625,39.083969465648856,18.65648854961832,-4.641221374045801,-350.72,253.44,38.4,16010.559893052
267,0.965087890625,-0.114501953125,0.0068359375,-1.114503816793893,10.580152671755725,4.9465648854961835,-350.72,245.76,46.08,16010.650393735
268,1.00634765625,-0.056640625,0.073974609375,4.763358778625954,-4.67175572519084,-4.0,-355.84000000000003,243.20000000000002,46.08,16010.740702124
269,0.9951171875,0.020751953125,0.01806640625,14.793893129770991,-3.099236641221374,-1.5877862595419847,-353.28000000000003,245.76,43.52,16010.829368183
270,0.995361328125,-0.06298828125,0.0048828125,4.916030534351145,8.0,6.473282442748092,-348.16,243.20000000000002,53.76,16010.919559717
271,1.02392578125,-0.154541015625,0.06396484375,-28.076335877862594,20.99236641221374,20.442748091603054,-348.16,240.64000000000001,58.88,16011.010599399
272,1.02392578125,-0.154541015625,0.06396484375,-28.076335877862594,20.99236641221374,20.442748091603054,-348.16,240.64000000000001,58.88,16011.100406361
273,0.99365234375,-0.126708984375,0.0634765625,-31.893129770992367,10.748091603053435,13.251908396946565,-340.48,240.64000000000001,66.56,16011.18937423
274,0.99853515625,-0.154296875,0.037841796875,-16.671755725190838,6.1679389312977095,14.549618320610687,-335.36,248.32,66.56,16011.280771598
275,0.968994140625,0.007080078125,0.0126953125,-24.48854961832061,50.030534351145036,-2.931297709923664,-325.12,253.44,74.24,16011.369655572
276,0.968017578125,-0.38330078125,-0.0673828125,-38.091603053435115,20.427480916030532,10.48854961832061,-327.68,250.88,76.8,16011.460097252
277,1.11279296875,-0.446533203125,0.21044921875,-131.0534351145038,57.61832061068702,48.99236641221374,-327.68,261.12,61.44,16011.550720382
278,1.01318359375,-0.475830078125,0.277587890625,-102.09160305343511,49.6793893129771,23.0381679389313,-332.8,276.48,38.4,16011.64033766
279,0.9228515625,-0.515869140625,0.377197265625,-200.54961832061068,63.49618320610687,89.66412213740458,-358.40000000000003,296.96,-30.72,16011.73102165
280,0.9228515625,-0.515869140625,0.377197265625,-200.54961832061068,63.49618320610687,89.66412213740458,-358.40000000000003,296.96,-30.72,16011.819856621
281,1.01953125,-0.677978515625,0.110595703125,-215.34351145038167,61.81679389312977,-4.305343511450381,-368.64,309.76,-87.04,16011.910452812
282,0.804443359375,-0.60693359375,0.033203125,-144.2442748091603,-9.419847328244275,85.61832061068702,-381.44,320.0,-161.28,16012.000067293
283,0.759521484375,-0.492919921875,-0.19091796875,-146.87022900763358,-27.877862595419845,-13.511450381679388,-371.2,345.6,-227.84,16012.089314761
284,0.53759765625,-0.764404296875,-0.6455078125,-172.99236641221373,1.3435114503816794,170.83969465648855,-363.52,355.84000000000003,-258.56,16012.179175359
285,0.377685546875,-0.35693359375,-0.66943359375,-210.76335877862596,-11.389312977099236,84.51908396946564,-355.84000000000003,360.96,-289.28000000000003,16012.269354768
286,0.3955078125,-0.39599609375,-0.84423828125,-187.57251908396947,32.82442748091603,113.64885496183206,-360.96,353.28000000000003,-314.88,16012.360735114
287,0.414306640625,-0.01611328125,-0.662841796875,-196.61068702290075,-20.12213740458015,78.80916030534351,-391.68,302.08,-376.32,16012.44957321
288,0.414306640625,-0.01611328125,-0.662841796875,-196.61068702290075,-20.12213740458015,78.80916030534351,-391.68,302.08,-376.32,16012.540831611
289,0.198974609375,0.265380859375,-1.00390625,-131.32824427480915,-73.69465648854961,41.14503816793893,-396.8,289.28000000000003,-399.36,16012.629938473
290,0.364013671875,0.115478515625,-0.918701171875,-142.4732824427481,-38.412213740458014,21.755725190839694,-376.32,299.52,-427.52,16012.720369769
291,0.078125,0.73388671875,-0.693115234375,-115.89312977099236,-74.70229007633587,13.419847328244273,-360.96,291.84000000000003,-473.6,16012.80984489
292,0.15234375,0.9013671875,-0.35302734375,-74.44274809160305,-86.10687022900763,52.48854961832061,-325.12,284.16,-542.72,16012.900854036
293,0.043701171875,0.52587890625,-0.662109375,-24.534351145038165,-92.22900763358778,122.33587786259541,-314.88,302.08,-537.6,16012.989100268
294,0.004638671875,0.773193359375,-0.697265625,-13.083969465648854,-107.32824427480915,85.89312977099236,-286.72,373.76,-463.36,16013.080358205
295,0.25390625,0.6796875,-0.388427734375,-73.9236641221374,-61.63358778625954,63.160305343511446,-286.72,373.76,-463.36,16013.169140316
296,0.25390625,0.6796875,-0.388427734375,-73.9236641221374,-61.63358778625954,63.160305343511446,-258.56,404.48,-440.32,16013.260033825
297,0.1201171875,0.876220703125,-0.4072265625,-12.48854961832061,-88.47328244274809,85.14503816793892,-222.72,424.96000000000004,-442.88,16013.349066384
298,0.185791015625,0.6806640625,-0.48974609375,-31.190839694656486,-57.31297709923664,36.10687022900763,-166.4,460.8,-412.16,16013.440843905
299,-0.009033203125,0.761474609375,-0.62158203125,-22.916030534351144,-23.801526717557252,31.572519083969464,-130.56,473.6,-412.16,16013.530845232
300,0.217529296875,0.813232421875,-0.46484375,-3.5725190839694654,-25.068702290076335,-40.44274809160305,-110.08,478.72,-419.84000000000003,16013.620826926
301,0.08837890625,0.86279296875,-0.697021484375,12.6412213740458,-11.98473282442748,29.66412213740458,-94.72,478.72,-424.96000000000004,16013.710418124
302,0.07275390625,0.80859375,-0.46826171875,1.3435114503816794,-29.877862595419845,0.916030534351145,-79.36,481.28000000000003,-432.64,16013.799364979
303,0.07275390625,0.80859375,-0.46826171875,1.3435114503816794,-29.877862595419845,0.916030534351145,-79.36,481.28000000000003,-432.64,16013.890396428
304,0.083984375,0.785400390625,-0.540283203125,-11.908396946564885,-20.99236641221374,27.93893129770992,-58.88,483.84000000000003,-435.2,16013.980758745
305,0.18603515625,0.825927734375,-0.45263671875,-47.81679389312977,-48.671755725190835,47.46564885496183,-48.64,478.72,-455.68,16014.070730612
306,0.130126953125,0.77978515625,-0.59765625,-106.54961832061068,-102.13740458015266,76.65648854961832,-28.16,473.6,-476.16,16014.15912827
307,0.250732421875,0.8193359375,-0.2177734375,-142.0763358778626,-149.78625954198472,101.23664122137404,23.04,422.40000000000003,-583.6800000000001,16014.24949459
308,0.48974609375,0.685791015625,-0.091064453125,-206.70229007633586,-192.12213740458014,95.08396946564885,51.2,366.08,-655.36,16014.339124731
309,0.619384765625,0.617919921875,0.114501953125,-192.64122137404578,-181.75572519083968,109.6793893129771,51.2,158.72,-791.04,16014.430881443
310,0.722412109375,0.633056640625,0.397216796875,-145.1145038167939,-103.57251908396947,40.3206106870229,2.56,53.76,-806.4,16014.52041485
311,0.722412109375,0.633056640625,0.397216796875,-145.1145038167939,-103.57251908396947,40.3206106870229,2.56,53.76,-806.4,16014.609704094
312,0.97216796875,0.58056640625,0.396728515625,-108.62595419847328,-45.46564885496183,20.412213740458014,-76.8,-97.28,-778.24,16014.700417979
313,1.038330078125,0.51220703125,0.60546875,-118.7328244274809,1.4961832061068703,-22.80916030534351,-97.28,-212.48000000000002,-719.36,16014.79045059
314,0.470703125,0.584716796875,0.171630859375,-81.37404580152672,53.96946564885496,-40.29007633587786,-92.16,-261.12,-688.64,16014.879602228
315,0.59619140625,0.517578125,0.5380859375,-47.98473282442748,31.770992366412212,-98.12213740458014,-17.92,-337.92,-637.44,16014.970016321
316,0.71142578125,0.506591796875,0.598876953125,-33.06870229007634,7.908396946564885,-64.32061068702289,51.2,-358.40000000000003,-624.64,16015.059076884
317,0.265380859375,0.721923828125,0.765380859375,-85.80152671755725,-21.832061068702288,-80.6412213740458,110.08,-399.36,-565.76,16015.150798615
318,0.466796875,0.578125,0.851318359375,-8.931297709923664,31.221374045801525,-47.221374045801525,117.76,-417.28000000000003,-535.04,16015.239567123
319,0.466796875,0.578125,0.851318359375,-8.931297709923664,31.221374045801525,-47.221374045801525,117.76,-417.28000000000003,-535.04,16015.330323698
320,0.225341796875,0.6923828125,0.716064453125,-29.404580152671755,28.80916030534351,-17.938931297709924,161.28,-422.40000000000003,-509.44,16015.420695249
321,0.320068359375,0.57568359375,0.73486328125,-29.221374045801525,22.15267175572519,10.916030534351144,176.64000000000001,-427.52,-494.08,16015.510609507
322,0.312744140625,0.510009765625,0.783935546875,-38.19847328244275,58.045801526717554,2.045801526717557,194.56,-437.76,-458.24,16015.60038905
323,0.35009765625,0.44287109375,1.131591796875,-52.82442748091603,34.045801526717554,37.87786259541985,230.4,-435.2,-432.64,16015.690440644
324,0.087890625,0.5068359375,0.9521484375,-31.709923664122137,34.396946564885496,4.961832061068702,268.8,-435.2,-384.0,16015.779168197
325,0.2744140625,0.23876953125,1.286376953125,-67.55725190839695,24.534351145038165,26.076335877862594,291.84000000000003,-430.08,-368.64,16015.869390744
326,-0.059814453125,0.140380859375,0.958740234375,-67.55725190839695,24.534351145038165,26.076335877862594,291.84000000000003,-430.08,-368.64,16015.960772526
327,-0.059814453125,0.140380859375,0.958740234375,-52.030534351145036,31.526717557251906,21.877862595419845,327.68,-419.84000000000003,-314.88,16016.049511837
328,0.17919921875,0.131103515625,0.903076171875,5.770992366412213,-11.297709923664122,13.404580152671755,335.36,-417.28000000000003,-302.08,16016.140743726
329,0.07177734375,0.134765625,1.239501953125,-42.70229007633588,59.541984732824424,42.167938931297705,325.12,-419.84000000000003,-307.2,16016.230707877
330,0.002685546875,-0.039794921875,1.011474609375,-107.2824427480916,5.694656488549618,112.99236641221374,353.28000000000003,-404.48,-302.08,16016.321485462
331,-0.0380859375,-0.314697265625,1.3388671875,-96.54961832061068,35.51145038167939,96.61068702290076,353.28000000000003,-409.6,-279.04,16016.410196448
332,-0.261474609375,-0.343994140625,0.805908203125,-74.16793893129771,32.351145038167935,86.53435114503816,381.44,-391.68,-273.92,16016.500564457
333,-0.207275390625,-0.50048828125,1.056396484375,-191.3587786259542,-9.66412213740458,101.29770992366412,391.68,-386.56,-256.0,16016.590436741
334,-0.207275390625,-0.50048828125,1.056396484375,-191.3587786259542,-9.66412213740458,101.29770992366412,391.68,-386.56,-256.0,16016.679536042
335,-0.241455078125,-0.8212890625,0.78271484375,-181.23664122137404,-15.725190839694656,53.45038167938931,391.68,-371.2,-128.0,16016.77013014
336,-0.247314453125,-0.942138671875,0.60693359375,-139.02290076335876,-19.69465648854962,-7.450381679389313,391.68,-348.16,-56.32,16016.859862628
337,-0.238525390625,-1.02685546875,0.2919921875,-114.65648854961832,-50.74809160305343,-24.259541984732824,371.2,-291.84000000000003,66.56,16016.949224272
338,-0.17626953125,-0.9423828125,0.19775390625,-115.0381679389313,-32.213740458015266,-14.458015267175572,353.28000000000003,-261.12,115.2,16017.040925538
339,-0.2060546875,-1.03564453125,0.012451171875,-81.86259541984732,-6.442748091603053,23.32824427480916,322.56,-184.32,194.56,16017.129330223
340,-0.253173828125,-1.09521484375,-0.238037109375,-139.8625954198473,-31.93893129770992,-44.50381679389313,325.12,-151.04,209.92000000000002,16017.220406063
341,-0.09423828125,-0.890869140625,-0.424072265625,-71.25190839694656,-1.9083969465648853,-48.42748091603053,284.16,-25.6,263.68,16017.310737267
342,-0.09423828125,-0.890869140625,-0.424072265625,-71.25190839694656,-1.9083969465648853,-48.42748091603053,284.16,-25.6,263.68,16017.399421058
343,-0.154541015625,-0.69873046875,-0.502197265625,-85.58778625954199,-27.374045801526716,-38.88549618320611,258.56,17.92,279.04,16017.489728931
344,-0.041015625,-0.756103515625,-0.730224609375,-61.70992366412214,1.5114503816793892,-0.16793893129770993,202.24,104.96000000000001,289.28000000000003,16017.579241511
345,0.24560546875,-0.81201171875,-0.819580078125,-51.06870229007633,-56.77862595419847,0.1984732824427481,204.8,176.64000000000001,263.68,16017.67030525
346,0.037353515625,-0.53466796875,-0.7578125,49.541984732824424,21.832061068702288,-36.01526717557252,207.36,192.0,258.56,16017.76041415
347,-0.02197265625,-0.54345703125,-0.727783203125,26.99236641221374,45.95419847328244,-29.709923664122137,156.16,166.4,281.6,16017.850067422
348,0.064208984375,-0.722412109375,-0.8720703125,20.198473282442748,11.679389312977099,7.267175572519084,125.44,151.04,291.84000000000003,16017.940692755
349,0.19873046875,-0.677490234375,-0.78662109375,27.557251908396946,35.847328244274806,-9.267175572519083,115.2,135.68,296.96,16018.03053968
350,0.19873046875,-0.677490234375,-0.78662109375,27.557251908396946,35.847328244274806,-9.267175572519083,115.2,135.68,296.96,16018.119623714
351,0.094970703125,-0.70166015625,-0.6220703125,17.389312977099237,5.603053435114504,-30.793893129770993,99.84,120.32000000000001,302.08,16018.209224622
352,0.234619140625,-0.755615234375,-0.55078125,39.51145038167939,22.77862595419847,-14.259541984732824,53.76,87.04,312.32,16018.30046849
353,0.35546875,-0.797119140625,-0.630615234375,19.755725190839694,28.580152671755723,-3.7404580152671754,43.52,61.44,317.44,16018.390226662
354,0.338623046875,-0.831298828125,-0.623046875,38.396946564885496,12.65648854961832,1.5419847328244274,33.28,28.16,317.44,16018.479430659
355,0.318603515625,-0.91845703125,-0.263671875,98.91603053435114,5.557251908396946,-15.633587786259541,35.84,2.56,317.44,16018.569668561
356,0.446044921875,-0.9658203125,-0.26513671875,102.9618320610687,12.213740458015266,-20.916030534351144,25.6,-115.2,296.96,16018.660498725
357,0.446044921875,-0.9658203125,-0.26513671875,102.9618320610687,12.213740458015266,-20.916030534351144,25.6,-115.2,296.96,16018.750928209
358,0.511962890625,-1.150390625,-0.184814453125,100.58015267175573,8.931297709923664,-51.11450381679389,7.68,-174.08,273.92,16018.840001651
359,0.51611328125,-1.0791015625,0.116943359375,140.3206106870229,-25.00763358778626,-51.038167938931295,-58.88,-268.8,207.36,16018.930866283
360,0.5595703125,-0.843017578125,0.2470703125,136.54961832061068,-20.85496183206107,-56.977099236641216,-102.4,-322.56,138.24,16019.019797378
361,0.582763671875,-0.63525390625,0.254150390625,97.05343511450381,-16.3206106870229,-59.37404580152671,-174.08,-394.24,-23.04,16019.110254997
362,0.832763671875,-0.5517578125,0.54150390625,24.80916030534351,-18.3206106870229,-74.13740458015266,-217.6,-409.6,-138.24,16019.199149603
363,0.86474609375,-0.504150390625,0.420654296875,20.198473282442748,-24.061068702290076,-96.16793893129771,-243.20000000000002,-404.48,-184.32,16019.290145586
364,0.88525390625,-0.320068359375,0.345703125,-82.4885496183206,-74.50381679389312,-110.30534351145037,-299.52,-371.2,-243.20000000000002,16019.379279837
365,0.88525390625,-0.320068359375,0.345703125,-82.4885496183206,-74.50381679389312,-110.30534351145037,-299.52,-371.2,-243.20000000000002,16019.470083249
366,0.856689453125,-0.04833984375,0.371337890625,-125.19083969465649,-77.09923664122137,-110.6412213740458,-335.36,-340.48,-238.08,16019.56031777
367,1.003662109375,0.044677734375,0.06787109375,-185.7709923664122,-107.1297709923664,-122.70229007633587,-412.16,-258.56,-230.4,16019.649823106
368,0.84619140625,0.34521484375,0.032470703125,-187.0534351145038,-100.61068702290076,-104.32061068702289,-453.12,-197.12,-230.4,16019.740432543
369,0.793212890625,0.598388671875,-0.01123046875,-105.72519083969465,-56.77862595419847,-65.9236641221374,-494.08,-84.48,-273.92,16019.831168162
370,0.73828125,0.598388671875,0.00341796875,-37.6793893129771,-26.335877862595417,-38.79389312977099,-494.08,-61.44,-302.08,16019.920463791
371,0.596923828125,0.809814453125,-0.096923828125,36.54961832061068,19.740458015267176,9.541984732824426,-491.52,-43.52,-345.6,16020.01105318
372,0.65966796875,0.74951171875,-0.185302734375,106.7328244274809,81.17557251908397,28.77862595419847,-488.96000000000004,-48.64,-337.92,16020.099340891
373,0.65966796875,0.74951171875,-0.185302734375,106.7328244274809,81.17557251908397,28.77862595419847,-488.96000000000004,-48.64,-337.92,16020.189400824
374,0.9189453125,0.44482421875,-0.064453125,183.12977099236642,141.12977099236642,73.06870229007633,-476.16,-125.44,-317.44,16020.279843763
375,0.93408203125,0.299072265625,0.036865234375,187.4656488549618,155.34351145038167,57.74045801526717,-450.56,-189.44,-320.0,16020.36921643
376,0.95703125,0.110595703125,0.336181640625,156.41221374045801,73.93893129770991,72.61068702290076,-373.76,-286.72,-381.44,16020.460442239
377,0.966064453125,0.1201171875,0.117919921875,98.61068702290076,62.58015267175572,46.80916030534351,-355.84000000000003,-291.84000000000003,-412.16,16020.550625151
378,0.7734375,-0.026611328125,0.193359375,19.099236641221374,62.48854961832061,200.62595419847327,-343.04,-296.96,-427.52,16020.639209225
379,0.575439453125,-0.61474609375,0.200439453125,-133.12977099236642,64.61068702290076,208.68702290076334,-325.12,-348.16,-217.6,16020.73097263
380,0.6318359375,-1.278564453125,-0.1083984375,-254.87022900763358,112.04580152671755,201.8625954198473,-325.12,-348.16,-217.6,16020.81918306
381,0.6318359375,-1.278564453125,-0.1083984375,-254.87022900763358,112.04580152671755,201.8625954198473,-263.68,-350.72,-40.96,16020.91064496
382,0.024169921875,-1.42822265625,-0.013427734375,-105.02290076335878,92.91603053435114,220.38167938931298,-10.24,-240.64000000000001,230.4,16020.999384649
383,0.02734375,-1.2333984375,0.012939453125,22.534351145038165,46.06106870229007,58.54961832061068,117.76,-199.68,253.44,16021.089472645
384,-0.170166015625,-1.0537109375,-0.05322265625,19.358778625954198,14.702290076335878,26.85496183206107,194.56,-215.04,225.28,16021.179588968
385,-0.082275390625,-1.0576171875,-0.024169921875,39.89312977099237,12.213740458015266,12.122137404580153,212.48000000000002,-225.28,212.48000000000002,16021.269692326
386,-0.21630859375,-0.933837890625,0.10400390625,15.908396946564885,0.7022900763358778,16.702290076335878,222.72,-253.44,186.88,16021.359188018
387,-0.180908203125,-0.988037109375,0.14208984375,47.038167938931295,-2.045801526717557,19.251908396946565,232.96,-266.24,171.52,16021.450742191
388,-0.180908203125,-0.988037109375,0.14208984375,47.038167938931295,-2.045801526717557,19.251908396946565,232.96,-266.24,171.52,16021.54024678
389,-0.184814453125,-1.169921875,0.31005859375,49.61832061068702,-35.404580152671755,8.16793893129771,245.76,-314.88,120.32000000000001,16021.629435446
390,-0.25390625,-1.129150390625,0.377685546875,98.65648854961832,-31.450381679389313,-21.69465648854962,230.4,-340.48,94.72,16021.720449879
391,-0.085205078125,-1.11376953125,0.40185546875,108.42748091603053,-30.82442748091603,-57.19083969465649,166.4,-414.72,2.56,16021.810093879
392,-0.025634765625,-0.898193359375,0.755615234375,103.2824427480916,-26.396946564885496,-68.45801526717557,128.0,-442.88,-48.64,16021.899611076
393,0.270263671875,-0.912109375,0.77490234375,99.93893129770991,-76.3969465648855,-91.29770992366412,40.96,-473.6,-153.6,16021.989869069
394,0.242919921875,-0.66015625,0.815185546875,28.12213740458015,-105.61832061068702,-195.55725190839695,-69.12,-471.04,-284.16,16022.080214559
395,0.431884765625,-0.6123046875,0.5400390625,-354.381679389313,-113.77099236641222,-350.9007633587786,-130.56,-455.68,-291.84000000000003,16022.170468499
396,0.431884765625,-0.6123046875,0.5400390625,-354.381679389313,-113.77099236641222,-350.9007633587786,-130.56,-455.68,-291.84000000000003,16022.260542898
397,0.6484375,-0.44580078125,0.95947265625,-393.4961832061069,-70.90076335877862,-253.90839694656486,-294.40000000000003,-332.8,-33.28,16022.349093857
398,0.515625,0.55517578125,0.730712890625,-154.27480916030532,-61.221374045801525,-149.61832061068702,-381.44,-230.4,-7.68,16022.440416771
399,0.969970703125,0.44775390625,0.109619140625,43.6793893129771,-14.442748091603052,-3.679389312977099,-455.68,-143.36,-84.48,16022.530734238
400,1.01904296875,0.287841796875,0.109619140625,-36.030534351145036,17.19083969465649,12.076335877862595,-455.68,-148.48,-87.04,16022.620756133
401,0.94140625,0.209716796875,0.123046875,8.244274809160306,26.0,30.717557251908396,-442.88,-156.16,-61.44,16022.710011071
402,0.940673828125,0.2119140625,0.411376953125,-10.473282442748092,0.16793893129770993,-9.267175572519083,-432.64,-166.4,-46.08,16022.799616025
403,0.978759765625,0.16259765625,0.151611328125,-10.900763358778626,0.2900763358778626,-7.679389312977099,-435.2,-166.4,-51.2,16022.889822886
404,0.978759765625,0.16259765625,0.151611328125,-10.900763358778626,0.2900763358778626,-7.679389312977099,-435.2,-166.4,-51.2,16022.980879708
405,0.984619140625,0.18505859375,0.3203125,-12.167938931297709,5.251908396946565,1.0229007633587786,-435.2,-163.84,-48.64,16023.069193358
406,1.014892578125,0.14208984375,0.2587890625,-6.259541984732824,6.351145038167939,1.1603053435114503,-432.64,-163.84,-43.52,16023.159225064
407,0.982177734375,0.216796875,0.31298828125,8.030534351145038,4.152671755725191,0.366412213740458,-432.64,-163.84,-40.96,16023.249780508
408,0.99169921875,0.238037109375,0.259765625,41.23664122137404,12.244274809160306,23.66412213740458,-430.08,-166.4,-38.4,16023.339882685
409,0.898681640625,0.199462890625,0.154296875,193.23664122137404,46.473282442748086,105.37404580152672,-424.96000000000004,-184.32,-40.96,16023.430762747
410,0.96142578125,-0.031982421875,0.361572265625,178.9770992366412,20.015267175572518,82.27480916030534,-371.2,-284.16,-74.24,16023.519939818
411,0.96142578125,-0.031982421875,0.361572265625,178.9770992366412,20.015267175572518,82.27480916030534,-371.2,-284.16,-74.24,16023.609559484
412,0.9755859375,-0.05126953125,0.308349609375,89.63358778625954,14.854961832061068,55.70992366412214,-332.8,-343.04,-145.92000000000002,16023.69987213
413,0.9638671875,-0.168212890625,0.389892578125,32.15267175572519,-2.351145038167939,26.885496183206104,-327.68,-350.72,-158.72,16023.790430617
414,0.970458984375,-0.111572265625,0.375244140625,51.541984732824424,13.099236641221374,23.267175572519083,-320.0,-358.40000000000003,-176.64000000000001,16023.879610416
415,0.917724609375,-0.20556640625,0.50537109375,219.26717557251908,16.427480916030532,60.9618320610687,-312.32,-366.08,-212.48000000000002,16023.97048252
416,0.95263671875,-0.157470703125,0.221923828125,123.1297709923664,22.244274809160306,46.18320610687023,-302.08,-358.40000000000003,-366.08,16024.060680624
417,0.898193359375,-0.123046875,0.494384765625,-18.412213740458014,19.801526717557252,27.083969465648853,-299.52,-353.28000000000003,-394.24,16024.149809251
418,0.9814453125,-0.196044921875,0.7275390625,59.29770992366412,9.511450381679388,71.37404580152672,-302.08,-358.40000000000003,-355.84000000000003,16024.240727977
419,0.9814453125,-0.196044921875,0.7275390625,59.29770992366412,9.511450381679388,71.37404580152672,-302.08,-358.40000000000003,-355.84000000000003,16024.329146014
420,0.825927734375,-0.36962890625,0.37744140625,174.99236641221373,-18.83969465648855,-13.251908396946565,-307.2,-345.6,-384.0,16024.419081006
421,0.8740234375,-0.084228515625,0.387939453125,43.17557251908397,-11.908396946564885,-40.42748091603053,-314.88,-261.12,-532.48,16024.509297382
422,0.87890625,0.027099609375,0.656494140625,-32.18320610687023,-18.80916030534351,-37.48091603053435,-307.2,-248.32,-558.08,16024.599429772
423,0.90478515625,0.027587890625,0.413818359375,25.572519083969464,-12.717557251908396,-26.259541984732824,-296.96,-238.08,-581.12,16024.690844777
424,0.97900390625,0.134033203125,0.345703125,2.183206106870229,-10.458015267175572,-26.671755725190838,-294.40000000000003,-222.72,-599.04,16024.779159989
425,0.810546875,0.181640625,0.3837890625,-0.12213740458015267,-2.9770992366412212,-22.244274809160306,-279.04,-209.92000000000002,-622.08,16024.870938994
426,1.011474609375,0.179931640625,0.4677734375,-4.229007633587786,-7.099236641221374,-21.297709923664122,-268.8,-207.36,-634.88,16024.959176738
427,1.011474609375,0.179931640625,0.4677734375,-4.229007633587786,-7.099236641221374,-21.297709923664122,-268.8,-207.36,-634.88,16025.050493494
428,0.837646484375,0.28662109375,0.310791015625,-4.9465648854961835,-29.43511450381679,-49.61832061068702,-256.0,-199.68,-650.24,16025.14049443
429,0.96240234375,0.29736328125,0.39306640625,-5.374045801526718,-5.587786259541985,-14.198473282442748,-238.08,-192.0,-673.28,16025.230842838
430,0.828857421875,0.40185546875,0.2890625,2.717557251908397,-30.0,-50.68702290076336,-227.84,-184.32,-683.52,16025.31920202
431,0.82958984375,0.453857421875,0.2470703125,-5.7251908396946565,-21.832061068702288,-31.358778625954198,-197.12,-163.84,-714.24,16025.410090466
432,0.950927734375,0.40869140625,0.29248046875,-3.7251908396946565,22.213740458015266,23.099236641221374,-192.0,-161.28,-719.36,16025.49998654
433,0.86083984375,0.439453125,0.232666015625,4.0,7.480916030534351,1.3740458015267174,-199.68,-166.4,-711.6800000000001,16025.590155684
434,0.7734375,0.5029296875,0.1904296875,-5.847328244274809,4.641221374045801,2.2748091603053435,-199.68,-166.4,-711.6800000000001,16025.680742318
435,0.7734375,0.5029296875,0.1904296875,-5.847328244274809,4.641221374045801,2.2748091603053435,-199.68,-163.84,-709.12,16025.769537419
436,0.705078125,0.634033203125,0.11767578125,-6.381679389312977,-3.7404580152671754,15.31297709923664,-204.8,-163.84,-709.12,16025.860112356
437,0.8173828125,0.31689453125,0.18408203125,-24.77862595419847,34.12213740458015,70.65648854961832,-217.6,-166.4,-696.32,16025.950467997
438,1.123291015625,0.094482421875,0.442138671875,-10.763358778625953,-0.5954198473282443,16.763358778625953,-261.12,-197.12,-642.5600000000001,16026.040457962
439,0.95849609375,0.17822265625,0.33642578125,-23.31297709923664,0.0916030534351145,15.251908396946565,-268.8,-199.68,-632.32,16026.130859031
440,1.109130859375,0.091064453125,0.454345703125,-20.030534351145036,2.9770992366412212,25.053435114503817,-281.6,-217.6,-606.72,16026.219473111
441,0.967529296875,0.092529296875,0.294921875,4.931297709923664,3.282442748091603,12.15267175572519,-291.84000000000003,-220.16,-591.36,16026.311128176
442,0.967529296875,0.092529296875,0.294921875,4.931297709923664,3.282442748091603,12.15267175572519,-291.84000000000003,-220.16,-591.36,16026.399524774
443,0.92138671875,0.135986328125,0.219970703125,10.67175572519084,10.961832061068701,4.183206106870228,-307.2,-209.92000000000002,-581.12,16026.490824214
444,0.9482421875,0.157470703125,0.28564453125,-3.450381679389313,-0.8244274809160305,-6.885496183206107,-312.32,-209.92000000000002,-581.12,16026.580168443
445,0.899169921875,0.13330078125,0.234130859375,-9.801526717557252,3.801526717557252,0.5954198473282443,-307.2,-204.8,-588.8000000000001,16026.670454001
446,0.96337890625,0.1494140625,0.24609375,-3.145038167938931,2.687022900763359,-3.8625954198473282,-304.64,-204.8,-591.36,16026.760859714
447,0.923583984375,0.1435546875,0.2548828125,-3.3435114503816794,1.7862595419847327,-5.603053435114504,-304.64,-204.8,-591.36,16026.850810023
448,1.003662109375,0.1357421875,0.354736328125,-2.549618320610687,4.351145038167939,3.099236641221374,-304.64,-209.92000000000002,-586.24,16026.939332464
449,0.937255859375,0.201416015625,0.247802734375,-3.068702290076336,3.5114503816793894,0.3969465648854962,-304.64,-204.8,-591.36,16027.029151077
450,0.937255859375,0.201416015625,0.247802734375,-3.068702290076336,3.5114503816793894,0.3969465648854962,-304.64,-204.8,-591.36,16027.1205041
451,1.02880859375,0.148681640625,0.298583984375,-1.2519083969465647,0.916030534351145,5.801526717557252,-304.64,-202.24,-593.92,16027.209293594
452,0.979248046875,0.116455078125,0.33837890625,2.213740458015267,-1.0076335877862594,-1.6030534351145038,-307.2,-199.68,-591.36,16027.300551125
453,0.937255859375,0.154052734375,0.2333984375,0.5190839694656488,-4.519083969465648,-4.244274809160305,-309.76,-194.56,-591.36,16027.390459514
454,0.9404296875,0.1982421875,0.208984375,3.3435114503816794,1.5267175572519083,-2.427480916030534,-312.32,-192.0,-593.92,16027.480858618
455,0.988525390625,0.142578125,0.264892578125,0.6259541984732824,0.5954198473282443,-0.04580152671755725,-309.76,-186.88,-596.48,16027.570922997
456,0.98876953125,0.106689453125,0.251708984375,-3.480916030534351,-5.557251908396946,0.21374045801526717,-312.32,-186.88,-596.48,16027.660922186
457,0.94287109375,0.184814453125,0.232177734375,5.816793893129771,-6.305343511450381,-3.969465648854962,-320.0,-179.20000000000002,-593.92,16027.750479177
458,0.94287109375,0.184814453125,0.232177734375,5.816793893129771,-6.305343511450381,-3.969465648854962,-320.0,-179.20000000000002,-593.92,16027.840478128
459,0.978271484375,0.187744140625,0.20458984375,-3.1755725190839694,-16.9618320610687,-1.5725190839694656,-320.0,-171.52,-596.48,16027.929354435
460,0.89892578125,0.2099609375,0.1064453125,8.793893129770993,0.21374045801526717,5.358778625954198,-330.24,-156.16,-596.48,16028.021040979
461,1.0400390625,0.042236328125,0.2548828125,12.717557251908396,9.236641221374045,8.580152671755725,-337.92,-153.6,-588.8000000000001,16028.110624139
462,0.9599609375,0.15380859375,0.201904296875,17.832061068702288,8.67175572519084,1.7404580152671756,-337.92,-148.48,-591.36,16028.2005475
463,0.961669921875,0.136962890625,0.25146484375,22.564885496183205,3.0534351145038165,5.068702290076335,-337.92,-138.24,-596.48,16028.290573313
464,0.974609375,0.065185546875,0.22998046875,12.732824427480915,5.557251908396946,12.412213740458014,-343.04,-128.0,-599.04,16028.379760977
465,0.99609375,0.0966796875,0.22998046875,12.732824427480915,5.557251908396946,12.412213740458014,-343.04,-128.0,-599.04,16028.470943012
466,0.99609375,0.0966796875,0.22998046875,13.709923664122137,2.946564885496183,0.366412213740458,-350.72,-117.76,-593.92,16028.559425574
467,1.002685546875,0.052734375,0.167236328125,-2.030534351145038,-8.351145038167939,5.648854961832061,-353.28000000000003,-110.08,-593.92,16028.65050917
468,1.020263671875,0.040283203125,0.2265625,3.6488549618320607,-0.41221374045801523,5.877862595419847,-360.96,-99.84,-588.8000000000001,16028.739418052
469,0.9853515625,0.036865234375,0.1884765625,8.51908396946565,-3.9389312977099236,-1.9541984732824427,-366.08,-94.72,-588.8000000000001,16028.830869037
470,0.949951171875,0.1259765625,0.01171875,-3.5725190839694654,-10.854961832061068,4.030534351145038,-368.64,-79.36,-588.8000000000001,16028.919956996
471,0.9873046875,0.02587890625,0.0244140625,-6.702290076335878,5.358778625954198,7.969465648854961,-373.76,-71.68,-586.24,16029.010353048
472,0.999755859375,0.03857421875,0.043701171875,-8.351145038167939,-1.129770992366412,4.793893129770992,-378.88,-69.12,-578.5600000000001,16029.099409123
473,0.999755859375,0.03857421875,0.043701171875,-8.351145038167939,-1.129770992366412,4.793893129770992,-378.88,-69.12,-578.5600000000001,16029.189991406
474,1.02587890625,-0.033935546875,0.0654296875,-3.0229007633587783,7.755725190839694,16.900763358778626,-381.44,-66.56,-576.0,16029.280789777
475,0.962646484375,0.029296875,0.05517578125,3.9083969465648853,1.282442748091603,11.541984732824426,-389.12,-64.0,-558.08,16029.36976804
476,1.076416015625,-0.165771484375,0.004150390625,-5.49618320610687,-0.13740458015267176,11.145038167938932,-401.92,-56.32,-545.28,16029.460952906
477,1.09814453125,-0.127197265625,0.084228515625,0.061068702290076333,5.7251908396946565,-3.9236641221374042,-404.48,-56.32,-545.28,16029.549225007
478,1.0673828125,-0.168212890625,0.129150390625,-23.267175572519083,3.618320610687023,-16.83969465648855,-401.92,-64.0,-547.84,16029.640958642
479,0.97412109375,0.078857421875,0.104736328125,-4.595419847328244,-3.6030534351145036,-42.70229007633588,-394.24,-71.68,-558.08,16029.730168473
480,0.909423828125,0.214599609375,0.008544921875,-26.519083969465647,1.1603053435114503,-23.770992366412212,-371.2,-76.8,-591.36,16029.819665073
481,0.909423828125,0.214599609375,0.008544921875,-26.519083969465647,1.1603053435114503,-23.770992366412212,-371.2,-76.8,-591.36,16029.909485986
482,0.928955078125,0.248291015625,0.0380859375,-20.458015267175572,22.80916030534351,-6.3206106870229,-363.52,-87.04,-599.04,16030.000089542
483,0.9345703125,0.174560546875,0.193603515625,-29.190839694656486,9.404580152671755,15.572519083969466,-358.40000000000003,-120.32000000000001,-588.8000000000001,16030.09092638
484,0.963623046875,0.096435546875,0.1748046875,-26.061068702290076,-2.4580152671755724,17.893129770992367,-363.52,-130.56,-578.5600000000001,16030.180132974
485,1.08349609375,-0.06494140625,0.23583984375,-21.603053435114504,13.129770992366412,27.770992366412212,-376.32,-143.36,-545.28,16030.271029036
486,0.93115234375,0.045166015625,0.199951171875,-10.977099236641221,2.2748091603053435,16.885496183206108,-381.44,-151.04,-529.92,16030.359351724
487,0.917724609375,0.00439453125,0.1650390625,0.5954198473282443,-11.206106870229007,15.908396946564885,-394.24,-151.04,-509.44,16030.450611477
488,0.98876953125,-0.08203125,0.072998046875,-8.82442748091603,-9.419847328244275,1.0534351145038168,-401.92,-143.36,-499.2,16030.539638772
489,0.98876953125,-0.08203125,0.072998046875,-8.82442748091603,-9.419847328244275,1.0534351145038168,-401.92,-143.36,-499.2,16030.63098303
490,0.901611328125,0.063720703125,-0.09619140625,9.66412213740458,8.65648854961832,16.564885496183205,-409.6,-138.24,-486.40000000000003,16030.719654503
491,1.005859375,-0.046630859375,0.118896484375,10.839694656488549,19.31297709923664,6.229007633587786,-412.16,-138.24,-476.16,16030.810998891
492,1.0576171875,-0.234619140625,0.07373046875,-35.64885496183206,19.053435114503817,14.732824427480915,-409.6,-156.16,-460.8,16030.90081068
493,1.05859375,-0.306640625,0.31396484375,-8.106870229007633,25.923664122137403,4.99236641221374,-401.92,-189.44,-432.64,16030.989913824
494,0.83837890625,-0.103759765625,0.316650390625,-14.091603053435113,13.221374045801527,11.465648854961831,-399.36,-202.24,-427.52,16031.080855754
495,0.96728515625,-0.265869140625,0.3984375,44.97709923664122,25.862595419847327,13.267175572519083,-394.24,-207.36,-417.28000000000003,16031.170562647
496,0.96728515625,-0.265869140625,0.3984375,44.97709923664122,25.862595419847327,13.267175572519083,-394.24,-207.36,-417.28000000000003,16031.260728068
497,0.968505859375,-0.4248046875,0.460205078125,56.01526717557252,30.396946564885496,23.14503816793893,-391.68,-204.8,-422.40000000000003,16031.349444829
498,1.07373046875,-0.480712890625,0.13525390625,-58.12213740458015,-0.9312977099236641,-9.877862595419847,-386.56,-207.36,-437.76,16031.440191765
499,0.9658203125,-0.345947265625,0.304443359375,-66.41221374045801,9.923664122137405,-27.84732824427481,-386.56,-215.04,-430.08,16031.529765382
500,0.879638671875,-0.227294921875,0.187255859375,-180.35114503816794,-17.84732824427481,-43.20610687022901,-376.32,-250.88,-401.92,16031.619992307
501,0.98486328125,-0.2275390625,0.13232421875,-230.73282442748092,11.465648854961831,-54.29007633587786,-378.88,-271.36,-348.16,16031.710304148
502,0.9658203125,-0.162841796875,0.265380859375,-249.78625954198472,0.8549618320610687,-62.5648854961832,-371.2,-296.96,-194.56,16031.799979977
503,0.95654296875,-0.09423828125,0.25244140625,-167.40458015267174,-11.694656488549619,-52.70229007633588,-378.88,-273.92,-112.64,16031.890825621
504,0.95654296875,-0.09423828125,0.25244140625,-167.40458015267174,-11.694656488549619,-52.70229007633588,-378.88,-273.92,-112.64,16031.980849752
505,1.059326171875,0.06591796875,0.42724609375,-84.71755725190839,9.297709923664122,9.435114503816793,-394.24,-212.48000000000002,-23.04,16032.070611047
506,0.9169921875,-0.012939453125,-0.095458984375,-3.0076335877862594,44.0763358778626,9.129770992366412,-386.56,-204.8,0.0,16032.160185626
507,0.9267578125,0.02490234375,0.2763671875,-41.46564885496183,9.801526717557252,4.809160305343512,-376.32,-209.92000000000002,10.24,16032.250550827
508,0.9990234375,-0.173095703125,0.149169921875,53.31297709923664,13.236641221374045,53.37404580152671,-373.76,-220.16,35.84,16032.339183903
509,0.975830078125,-0.19482421875,0.21484375,84.83969465648855,-0.3969465648854962,53.083969465648856,-340.48,-243.20000000000002,35.84,16032.431018728
510,0.76123046875,-0.286376953125,0.340576171875,128.5648854961832,-21.63358778625954,141.95419847328245,-304.64,-291.84000000000003,25.6,16032.519583783
511,0.74853515625,-0.4677734375,0.11572265625,88.10687022900763,13.48091603053435,133.2824427480916,-268.8,-320.0,25.6,16032.609858866
512,0.74853515625,-0.4677734375,0.11572265625,88.10687022900763,13.48091603053435,133.2824427480916,-268.8,-320.0,25.6,16032.700190545
513,0.947021484375,-1.04248046875,0.442138671875,24.412213740458014,111.45038167938931,124.27480916030534,-138.24,-376.32,48.64,16032.790875088
514,0.19873046875,-0.5029296875,0.272705078125,-14.106870229007633,112.7328244274809,79.93893129770991,-56.32,-394.24,64.0,16032.880858436
515,0.257568359375,-0.739990234375,0.637451171875,-28.30534351145038,23.923664122137403,82.47328244274809,99.84,-376.32,104.96000000000001,16032.969816241
516,0.2177734375,-1.078857421875,0.397216796875,-3.847328244274809,-6.473282442748092,31.755725190839694,145.92000000000002,-378.88,92.16,16033.060959293
517,0.151611328125,-1.06103515625,0.483154296875,1.0229007633587786,25.34351145038168,23.96946564885496,186.88,-384.0,69.12,16033.150251696
518,0.038818359375,-0.8896484375,0.55419921875,-2.748091603053435,24.442748091603054,15.648854961832061,202.24,-381.44,69.12,16033.23922783
519,-0.063232421875,-1.013427734375,0.590087890625,-2.748091603053435,24.442748091603054,15.648854961832061,202.24,-381.44,69.12,16033.329197249
520,-0.063232421875,-1.013427734375,0.590087890625,0.8244274809160305,8.763358778625953,30.213740458015266,235.52,-371.2,64.0,16033.420069142
521,-0.1767578125,-0.883544921875,0.37255859375,-16.213740458015266,-15.709923664122137,17.862595419847327,248.32,-373.76,53.76,16033.509654411
522,0.10400390625,-1.1484375,0.527587890625,2.1221374045801524,-1.5725190839694656,-5.511450381679389,245.76,-373.76,56.32,16033.600396062
523,-0.244140625,-1.03857421875,0.5185546875,-29.00763358778626,1.450381679389313,18.65648854961832,243.20000000000002,-373.76,58.88,16033.689932415
524,-0.07080078125,-0.870849609375,0.368408203125,6.076335877862595,-11.618320610687022,-47.541984732824424,232.96,-366.08,84.48,16033.78086354
525,0.275146484375,-0.959716796875,0.535888671875,13.267175572519083,-24.15267175572519,-2.687022900763359,194.56,-371.2,89.60000000000001,16033.870988854
526,0.215576171875,-0.97119140625,0.357421875,-0.24427480916030533,10.625954198473282,-6.885496183206107,181.76,-381.44,84.48,16033.960899225
527,0.215576171875,-0.97119140625,0.357421875,-0.24427480916030533,10.625954198473282,-6.885496183206107,181.76,-381.44,84.48,16034.049516031
528,0.0810546875,-0.859619140625,0.421630859375,-13.84732824427481,19.16030534351145,3.450381679389313,181.76,-373.76,94.72,16034.140527604
529,0.14013671875,-0.91357421875,0.33544921875,-22.30534351145038,37.38931297709924,-26.839694656488547,194.56,-366.08,97.28,16034.229668945
530,0.07958984375,-1.080810546875,0.4345703125,-28.396946564885496,62.12213740458015,-9.221374045801527,230.4,-335.36,125.44,16034.319122808
531,0.011962890625,-0.964599609375,0.302490234375,-19.00763358778626,62.70229007633588,-26.15267175572519,253.44,-317.44,130.56,16034.410423368
532,0.065185546875,-0.968994140625,0.346435546875,-39.11450381679389,80.18320610687023,-5.32824427480916,291.84000000000003,-268.8,158.72,16034.500966487
533,-0.0029296875,-0.936767578125,0.251708984375,-40.51908396946565,88.1526717557252,-8.351145038167939,314.88,-235.52,171.52,16034.589238885
534,-0.028564453125,-1.045654296875,0.26806640625,-31.374045801526716,82.65648854961832,-11.954198473282442,358.40000000000003,-161.28,186.88,16034.680857577
535,-0.028564453125,-1.045654296875,0.26806640625,-31.374045801526716,82.65648854961832,-11.954198473282442,358.40000000000003,-161.28,186.88,16034.771101504
536,-0.07666015625,-1.062255859375,0.2607421875,-69.3587786259542,35.14503816793893,32.0763358778626,368.64,-122.88,197.12,16034.860482548
537,-0.07373046875,-0.82958984375,0.1923828125,8.67175572519084,42.229007633587784,8.351145038167939,389.12,-58.88,194.56,16034.950243598
538,0.01708984375,-1.10791015625,0.04931640625,-11.190839694656487,16.53435114503817,1.083969465648855,396.8,-51.2,189.44,16035.040891791
539,-0.083251953125,-1.05419921875,0.113525390625,-4.625954198473282,13.374045801526718,1.4351145038167938,404.48,-33.28,186.88,16035.129655503
540,-0.060302734375,-1.0771484375,0.148681640625,-16.198473282442748,13.068702290076335,4.99236641221374,407.04,-28.16,184.32,16035.219664907
541,-0.205322265625,-1.122314453125,0.11865234375,-5.923664122137405,12.320610687022901,15.206106870229007,409.6,-17.92,181.76,16035.309294519
542,-0.111572265625,-1.086181640625,0.2021484375,1.8931297709923662,28.748091603053435,-27.755725190839694,419.84000000000003,0.0,174.08,16035.400933713
543,-0.111572265625,-1.086181640625,0.2021484375,1.8931297709923662,28.748091603053435,-27.755725190839694,419.84000000000003,0.0,174.08,16035.489328882
544,0.1044921875,-1.280029296875,0.05419921875,24.442748091603054,-0.6106870229007634,0.38167938931297707,419.84000000000003,-7.68,174.08,16035.581326481
545,-0.024658203125,-1.135986328125,0.07373046875,-34.67175572519084,28.931297709923662,7.938931297709924,417.28000000000003,0.0,176.64000000000001,16035.670262233
546,-0.12109375,-1.0927734375,0.02587890625,5.236641221374046,40.732824427480914,18.9618320610687,412.16,20.48,179.20000000000002,16035.760849685
547,0.006103515625,-1.034423828125,0.143310546875,13.297709923664122,77.6030534351145,5.694656488549618,430.08,51.2,161.28,16035.850545519
548,0.006591796875,-1.089599609375,0.0927734375,-29.93893129770992,-37.43511450381679,-24.580152671755723,419.84000000000003,66.56,168.96,16035.939566467
549,-0.342529296875,-1.080810546875,0.116455078125,-0.916030534351145,-65.19083969465649,-30.534351145038165,412.16,64.0,176.64000000000001,16036.029709476
550,-0.342529296875,-1.080810546875,0.116455078125,-0.916030534351145,-65.19083969465649,-30.534351145038165,412.16,64.0,176.64000000000001,16036.119994468
551,-0.128662109375,-1.03662109375,0.0791015625,21.48091603053435,122.61068702290076,32.97709923664122,412.16,43.52,176.64000000000001,16036.210057803
552,-0.109130859375,-0.90771484375,0.21142578125,28.99236641221374,75.66412213740458,109.58778625954199,417.28000000000003,110.08,158.72,16036.301000962
553,0.4775390625,-1.435302734375,0.041748046875,104.42748091603053,-83.77099236641222,25.114503816793892,471.04,107.52,99.84,16036.391008007
554,-0.37255859375,-1.4306640625,0.064453125,-93.98473282442748,86.58015267175573,-321.8320610687023,453.12,-28.16,138.24,16036.480943008
555,-0.392333984375,-0.85986328125,0.165283203125,-60.51908396946565,-12.778625954198473,-118.77862595419847,291.84000000000003,40.96,263.68,16036.570024439
556,-0.1376953125,-0.8232421875,0.247802734375,-48.351145038167935,27.31297709923664,200.87022900763358,171.52,115.2,299.52,16036.659889291
557,0.305419921875,-1.336669921875,0.018310546875,69.57251908396947,-88.94656488549617,238.67175572519082,453.12,84.48,125.44,16036.750225818
558,0.305419921875,-1.336669921875,0.018310546875,69.57251908396947,-88.94656488549617,238.67175572519082,453.12,84.48,125.44,16036.840972104
559,0.583740234375,-1.35888671875,0.0693359375,4.458015267175572,69.6793893129771,-152.3969465648855,504.32,58.88,64.0,16036.930485844
560,-0.280029296875,-1.3916015625,0.12744140625,10.931297709923664,91.41984732824427,-333.74045801526717,276.48,97.28,258.56,16037.020153567
561,-0.431396484375,-0.74169921875,-0.06982421875,-51.49618320610687,30.931297709923662,5.32824427480916,107.52,99.84,307.2,16037.109267944
562,0.12548828125,-0.97314453125,0.231201171875,-109.23664122137404,127.78625954198473,214.27480916030532,174.08,181.76,266.24,16037.200477728
563,0.567626953125,-1.180908203125,0.2431640625,37.96946564885496,-117.95419847328243,166.45801526717557,294.40000000000003,230.4,189.44,16037.290825219
564,0.415771484375,-1.338623046875,0.012451171875,18.27480916030534,-36.15267175572519,-186.6564885496183,412.16,138.24,145.92000000000002,16037.379772694
565,-0.29296875,-1.16064453125,0.08154296875,-9.511450381679388,75.05343511450381,-217.54198473282443,307.2,128.0,230.4,16037.470358053
566,-0.29296875,-1.16064453125,0.08154296875,-9.511450381679388,75.05343511450381,-217.54198473282443,307.2,128.0,230.4,16037.560357214
567,-0.264404296875,-0.750732421875,0.097412109375,-47.52671755725191,-14.564885496183205,129.64885496183206,104.96000000000001,161.28,289.28000000000003,16037.650534902
568,0.24658203125,-1.135498046875,0.235595703125,-8.473282442748092,-67.55725190839695,193.64885496183206,189.44,186.88,261.12,16037.739274376
569,0.47705078125,-1.1796875,0.0107421875,-18.198473282442748,5.480916030534351,36.717557251908396,399.36,158.72,145.92000000000002,16037.829882148
570,0.2998046875,-1.284423828125,0.14208984375,5.206106870229007,-15.938931297709923,-240.53435114503816,401.92,168.96,143.36,16037.920060508
571,-0.3251953125,-0.978759765625,0.02587890625,-4.473282442748092,32.99236641221374,-143.6946564885496,176.64000000000001,163.84,279.04,16038.010917772
572,-0.17822265625,-0.8603515625,0.09228515625,-8.396946564885496,17.083969465648853,177.17557251908397,97.28,168.96,294.40000000000003,16038.145629477
573,0.32421875,-1.1787109375,0.104248046875,-0.15267175572519084,-55.26717557251908,194.13740458015266,263.68,181.76,235.52,16038.234387662
574,0.705810546875,-1.217041015625,0.043212890625,-19.053435114503817,-2.351145038167939,-17.755725190839694,424.96000000000004,148.48,130.56,16038.324101998
575,0.07861328125,-1.26318359375,0.133056640625,4.534351145038168,-19.81679389312977,-276.8091603053435,363.52,148.48,189.44,16038.415970069
576,-0.235107421875,-0.88671875,0.04296875,23.587786259541982,20.97709923664122,-77.08396946564885,110.08,133.12,304.64,16038.50594444
577,-0.235107421875,-0.88671875,0.04296875,23.587786259541982,20.97709923664122,-77.08396946564885,110.08,133.12,304.64,16038.595917972
578,-0.074462890625,-1.02587890625,0.090576171875,-30.85496183206107,4.183206106870228,195.6793893129771,107.52,128.0,307.2,16038.68544847
579,0.5205078125,-1.130126953125,0.171630859375,-32.412213740458014,-29.068702290076335,160.68702290076334,317.44,171.52,209.92000000000002,16038.77550343
580,0.64404296875,-1.27880859375,-0.044921875,2.900763358778626,-19.31297709923664,-78.33587786259541,391.68,158.72,158.72,16038.866053887
581,0.07470703125,-1.187255859375,0.08056640625,-8.51908396946565,-15.14503816793893,-242.93129770992365,271.36,140.8,253.44,16038.95467728
582,-0.2646484375,-0.770751953125,0.019775390625,0.6106870229007634,36.045801526717554,-17.00763358778626,140.8,145.92000000000002,296.96,16039.044877557
583,0.07373046875,-1.10791015625,0.10888671875,-24.030534351145036,9.007633587786259,255.16030534351145,174.08,153.6,286.72,16039.134410221
584,0.550048828125,-1.15966796875,0.145751953125,-7.83206106870229,-79.25190839694656,95.63358778625954,312.32,166.4,220.16,16039.225120252
585,0.550048828125,-1.15966796875,0.145751953125,-7.83206106870229,-79.25190839694656,95.63358778625954,312.32,166.4,220.16,16039.31446019
586,0.35693359375,-1.232177734375,-0.072998046875,-26.763358778625953,5.2824427480916025,-130.54961832061068,399.36,140.8,161.28,16039.40615508
587,-0.0576171875,-0.9248046875,0.083251953125,-11.83206106870229,38.3206106870229,-108.3969465648855,327.68,161.28,212.48000000000002,16039.496052466
588,-0.054931640625,-0.93701171875,0.05078125,31.12977099236641,13.770992366412214,9.435114503816793,204.8,189.44,266.24,16039.585807924
589,0.072509765625,-1.05712890625,0.016357421875,4.152671755725191,-23.083969465648853,68.68702290076335,212.48000000000002,171.52,268.8,16039.674823513
590,0.309326171875,-0.966796875,0.025146484375,1.465648854961832,-20.916030534351144,76.8854961832061,296.96,145.92000000000002,238.08,16039.765585804
591,0.503173828125,-1.13330078125,-0.171142578125,-37.587786259541986,-14.458015267175572,-15.099236641221374,376.32,117.76,189.44,16039.855096771
592,0.503173828125,-1.13330078125,-0.171142578125,-37.587786259541986,-14.458015267175572,-15.099236641221374,376.32,117.76,189.44,16039.944936604
593,0.123291015625,-1.0791015625,0.176025390625,-8.412213740458014,24.885496183206104,-135.40458015267174,343.04,148.48,207.36,16040.034843216
594,-0.134033203125,-0.9326171875,-0.01318359375,51.74045801526717,20.610687022900763,-30.47328244274809,215.04,145.92000000000002,276.48,16040.125988111
595,0.076416015625,-1.0029296875,-0.015625,5.847328244274809,-25.068702290076335,91.61832061068702,220.16,122.88,279.04,16040.215513656
596,0.311767578125,-1.100830078125,-0.129638671875,-28.29007633587786,2.198473282442748,117.81679389312977,343.04,89.60000000000001,220.16,16040.306296659
597,0.435546875,-1.146728515625,0.048828125,-29.083969465648853,-30.366412213740457,-43.37404580152672,394.24,99.84,179.20000000000002,16040.395670642
598,0.024658203125,-1.089111328125,0.05029296875,17.862595419847327,36.030534351145036,-116.47328244274809,340.48,107.52,220.16,16040.485730379
599,-0.1005859375,-1.014404296875,-0.0185546875,33.969465648854964,11.877862595419847,-54.396946564885496,273.92,104.96000000000001,261.12,16040.575538924
600,-0.1005859375,-1.014404296875,-0.0185546875,33.969465648854964,11.877862595419847,-54.396946564885496,273.92,104.96000000000001,261.12,16040.66535153
601,0.041748046875,-0.919921875,0.005615234375,-3.8931297709923665,-8.274809160305344,93.74045801526717,238.08,76.8,281.6,16040.754585467
602,0.431396484375,-1.095703125,0.053955078125,-45.17557251908397,-21.236641221374043,100.15267175572518,299.52,74.24,250.88,16040.8449754
603,0.375,-1.10205078125,0.034912109375,-15.251908396946565,-36.732824427480914,-76.80916030534351,384.0,79.36,194.56,16040.935597925
604,0.052978515625,-1.022216796875,0.077392578125,14.351145038167939,61.46564885496183,-92.61068702290076,348.16,79.36,220.16,16041.024722287
605,-0.076416015625,-0.968017578125,-0.046630859375,29.068702290076335,-9.938931297709923,-23.16030534351145,240.64000000000001,84.48,279.04,16041.1154158
606,0.170654296875,-1.015625,-0.104248046875,-12.274809160305344,2.7022900763358777,132.4732824427481,291.84000000000003,58.88,256.0,16041.205136605
607,0.53173828125,-1.24853515625,0.079345703125,-50.70229007633588,30.061068702290076,24.27480916030534,363.52,71.68,209.92000000000002,16041.294820823
608,0.53173828125,-1.24853515625,0.079345703125,-50.70229007633588,30.061068702290076,24.27480916030534,363.52,71.68,209.92000000000002,16041.384798975
609,0.072021484375,-1.10009765625,0.11474609375,20.259541984732824,5.435114503816794,-112.83969465648855,335.36,110.08,225.28,16041.475578316
610,-0.067138671875,-0.9765625,-0.045166015625,36.595419847328245,-5.343511450381679,-61.908396946564885,273.92,94.72,263.68,16041.565528127
611,0.029052734375,-0.997314453125,-0.08251953125,-9.145038167938932,4.9465648854961835,102.61068702290076,256.0,61.44,273.92,16041.654744553
612,0.44677734375,-1.1220703125,0.01904296875,-41.221374045801525,9.694656488549619,89.90839694656488,327.68,71.68,232.96,16041.745020756
613,0.302978515625,-1.124267578125,0.0908203125,-11.450381679389313,-1.0534351145038168,-102.59541984732824,378.88,99.84,192.0,16041.834264735
614,-0.076171875,-0.99169921875,-0.03662109375,34.33587786259542,29.98473282442748,-96.2442748091603,320.0,99.84,235.52,16041.925235953
615,-0.022216796875,-0.959716796875,-0.06982421875,34.33587786259542,29.98473282442748,-96.2442748091603,320.0,99.84,235.52,16042.015543061
616,-0.022216796875,-0.959716796875,-0.06982421875,-0.32061068702290074,31.053435114503817,54.61068702290076,240.64000000000001,84.48,276.48,16042.106064723
617,0.314208984375,-1.080322265625,-0.005126953125,-28.77862595419847,-13.83206106870229,88.74809160305342,279.04,92.16,258.56,16042.194806574
618,0.37158203125,-1.10498046875,0.072021484375,-26.27480916030534,-10.381679389312977,-27.84732824427481,360.96,107.52,202.24,16042.285548209
619,0.05419921875,-1.01318359375,0.013427734375,20.366412213740457,17.0381679389313,-67.69465648854961,345.6,115.2,212.48000000000002,16042.374449209
620,0.0517578125,-0.976318359375,-0.078857421875,16.82442748091603,3.633587786259542,5.236641221374046,281.6,104.96000000000001,253.44,16042.465976902
621,0.18359375,-0.974853515625,-0.021240234375,-29.587786259541982,25.725190839694655,40.595419847328245,286.72,99.84,253.44,16042.554527344
622,0.205078125,-1.068359375,-0.0048828125,-11.465648854961831,12.259541984732824,1.2061068702290076,322.56,128.0,225.28,16042.645120655
623,0.205078125,-1.068359375,-0.0048828125,-11.465648854961831,12.259541984732824,1.2061068702290076,322.56,128.0,225.28,16042.735486476
624,0.13134765625,-0.961669921875,-0.04296875,19.786259541984734,-14.946564885496183,-25.14503816793893,312.32,117.76,232.96,16042.825885713
625,0.128662109375,-1.06298828125,-0.0556640625,-9.32824427480916,-4.488549618320611,10.549618320610687,307.2,107.52,240.64000000000001,16042.91554064
626,0.18115234375,-0.9833984375,0.030517578125,-4.183206106870228,-9.16030534351145,1.6793893129770991,317.44,110.08,232.96,16043.005897265
627,0.12109375,-1.026611328125,-0.02294921875,-2.5038167938931295,5.480916030534351,-10.458015267175572,320.0,107.52,232.96,16043.095976343
628,0.111572265625,-1.02783203125,-0.03369140625,-4.122137404580153,4.67175572519084,4.381679389312977,312.32,104.96000000000001,238.08,16043.185462332
629,0.130859375,-0.99853515625,0.001708984375,-0.0916030534351145,0.9465648854961831,0.9312977099236641,314.88,107.52,235.52,16043.274267682
630,0.163818359375,-1.01318359375,-0.008544921875,-1.9236641221374045,1.114503816793893,-1.4351145038167938,320.0,107.52,232.96,16043.365926859
631,0.163818359375,-1.01318359375,-0.008544921875,-1.9236641221374045,1.114503816793893,-1.4351145038167938,320.0,107.52,232.96,16043.454710712
632,0.130859375,-1.009521484375,-0.0126953125,2.1068702290076335,1.3129770992366412,-1.4809160305343512,320.0,107.52,235.52,16043.545304451
633,0.149658203125,-0.98486328125,-0.003662109375,-3.7557251908396947,5.480916030534351,0.030534351145038167,320.0,107.52,232.96,16043.635512648
634,0.134765625,-1.018310546875,-0.01806640625,-0.7480916030534351,4.061068702290076,-1.6335877862595418,322.56,110.08,232.96,16043.726026464
635,0.16064453125,-0.9921875,-0.02587890625,-2.6259541984732824,7.297709923664121,2.3664122137404577,322.56,110.08,230.4,16043.815396253
636,0.115966796875,-0.99609375,-0.038330078125,0.183206106870229,-2.045801526717557,-13.267175572519083,322.56,110.08,230.4,16043.905538155
637,0.182373046875,-1.0166015625,-0.011474609375,-6.931297709923664,5.786259541984733,6.290076335877862,320.0,107.52,232.96,16043.995950247
638,0.13623046875,-1.001708984375,-0.01904296875,0.9770992366412213,3.1755725190839694,2.015267175572519,317.44,110.08,230.4,16044.085097245
639,0.13623046875,-1.001708984375,-0.01904296875,0.9770992366412213,3.1755725190839694,2.015267175572519,317.44,110.08,230.4,16044.1747105
640,0.135498046875,-0.989013671875,-0.00146484375,-6.687022900763359,7.099236641221374,-8.412213740458014,320.0,107.52,232.96,16044.264890602
641,0.1181640625,-1.023681640625,-0.0126953125,-1.3740458015267174,1.6030534351145038,8.076335877862595,314.88,110.08,235.52,16044.354355123
642,0.164794921875,-0.984130859375,-0.02197265625,-0.48854961832061067,3.068702290076336,-3.633587786259542,322.56,110.08,230.4,16044.445877634
643,0.1484375,-1.043212890625,-0.021728515625,-5.038167938931298,10.396946564885496,7.526717557251908,322.56,107.52,230.4,16044.535867513
644,0.164306640625,-0.95556640625,0.016357421875,-0.6412213740458015,8.916030534351144,-0.183206106870229,325.12,110.08,227.84,16044.624997532
645,0.1123046875,-1.039306640625,-0.032470703125,-5.419847328244274,9.526717557251908,-3.49618320610687,320.0,112.64,230.4,16044.71586239
646,0.1123046875,-1.039306640625,-0.032470703125,-5.419847328244274,9.526717557251908,-3.49618320610687,320.0,112.64,230.4,16044.805572175
647,0.15234375,-0.98046875,-0.0078125,4.519083969465648,8.229007633587786,2.8854961832061066,320.0,117.76,230.4,16044.895933079
648,0.10986328125,-1.052001953125,-0.043701171875,0.2595419847328244,3.9389312977099236,-2.1221374045801524,320.0,112.64,232.96,16044.984763974
649,0.14599609375,-0.930419921875,0.014404296875,-0.6717557251908397,3.4045801526717554,1.3740458015267174,322.56,115.2,230.4,16045.075349966
650,0.241943359375,-1.1005859375,0.070068359375,-34.18320610687023,66.47328244274809,7.83206106870229,322.56,135.68,222.72,16045.164438312
651,0.099853515625,-0.958984375,0.0498046875,15.84732824427481,-23.0381679389313,-13.725190839694656,317.44,161.28,217.6,16045.254477193
652,0.19873046875,-0.93603515625,-0.078369140625,-16.793893129770993,15.587786259541984,36.01526717557252,314.88,153.6,222.72,16045.344413414
653,0.107177734375,-1.0751953125,0.03857421875,31.740458015267173,-4.458015267175572,-18.9618320610687,330.24,153.6,212.48000000000002,16045.436043159
654,0.107177734375,-1.0751953125,0.03857421875,31.740458015267173,-4.458015267175572,-18.9618320610687,330.24,153.6,212.48000000000002,16045.526013858
655,0.118896484375,-1.081298828125,0.05029296875,18.641221374045802,-6.977099236641221,-7.038167938931298,317.44,122.88,230.4,16045.6158298
656,0.15185546875,-0.96240234375,0.016357421875,12.65648854961832,-0.22900763358778625,13.206106870229007,320.0,94.72,235.52,16045.705485819
657,0.2001953125,-0.99267578125,0.134765625,16.381679389312975,4.015267175572519,-12.900763358778626,322.56,92.16,232.96,16045.795766612
658,0.153564453125,-1.013671875,0.02490234375,-20.97709923664122,-45.55725190839694,-31.114503816793892,304.64,71.68,248.32,16045.884939465
659,0.126708984375,-0.954833984375,0.152099609375,-8.091603053435113,12.99236641221374,10.351145038167939,296.96,76.8,253.44,16045.974549503
660,0.19482421875,-0.98095703125,0.13720703125,32.778625954198475,20.30534351145038,9.893129770992367,304.64,84.48,245.76,16046.06498357
661,0.2509765625,-1.054443359375,0.03125,-21.19083969465649,-16.99236641221374,-13.374045801526718,309.76,71.68,243.20000000000002,16046.155229452
662,0.2509765625,-1.054443359375,0.03125,-21.19083969465649,-16.99236641221374,-13.374045801526718,309.76,71.68,243.20000000000002,16046.245910928
663,0.14990234375,-0.96923828125,0.14453125,7.923664122137405,11.66412213740458,-29.81679389312977,294.40000000000003,79.36,250.88,16046.334311654
664,0.1962890625,-1.00927734375,0.048095703125,-11.84732824427481,6.519083969465648,14.82442748091603,281.6,74.24,256.0,16046.426101413
665,0.314697265625,-1.01904296875,0.04931640625,1.9083969465648853,16.641221374045802,-3.068702290076336,296.96,84.48,250.88,16046.514927308
666,0.259521484375,-1.013671875,0.151123046875,-22.015267175572518,-9.694656488549619,-70.61068702290076,289.28000000000003,89.60000000000001,253.44,16046.605623429
667,0.028564453125,-0.921142578125,0.043701171875,28.244274809160306,3.4045801526717554,36.88549618320611,230.4,99.84,276.48,16046.695519392
668,0.6181640625,-1.029296875,0.00634765625,-33.48091603053435,41.69465648854962,16.458015267175572,256.0,84.48,268.8,16046.784783139
669,0.159423828125,-1.087158203125,0.13720703125,19.114503816793892,2.946564885496183,-103.98473282442748,256.0,84.48,268.8,16046.875109855
670,0.159423828125,-1.087158203125,0.13720703125,19.114503816793892,2.946564885496183,-103.98473282442748,256.0,104.96000000000001,266.24,16046.965510416
671,-0.013671875,-0.882568359375,0.003662109375,6.824427480916031,-12.977099236641221,72.07633587786259,209.92000000000002,81.92,289.28000000000003,16047.055083385
672,0.675537109375,-1.0546875,0.046875,-10.259541984732824,42.82442748091603,48.229007633587784,271.36,79.36,263.68,16047.144568052
673,0.2099609375,-1.09130859375,0.12646484375,-18.595419847328245,-5.893129770992366,-126.94656488549617,240.64000000000001,97.28,273.92,16047.235612157
674,-0.0234375,-0.809326171875,0.04052734375,22.99236641221374,17.48091603053435,73.19083969465649,186.88,99.84,291.84000000000003,16047.324178485
675,0.91748046875,-1.0498046875,0.3408203125,-22.62595419847328,-26.366412213740457,53.05343511450381,289.28000000000003,94.72,253.44,16047.415256261
676,0.08203125,-1.12744140625,0.04296875,-6.824427480916031,-13.786259541984732,-134.3969465648855,279.04,89.60000000000001,258.56,16047.505604052
677,0.08203125,-1.12744140625,0.04296875,-6.824427480916031,-13.786259541984732,-134.3969465648855,279.04,89.60000000000001,258.56,16047.596091952
678,0.0078125,-0.811767578125,0.05029296875,-3.32824427480916,29.541984732824428,90.36641221374046,192.0,99.84,291.84000000000003,16047.684538632
679,0.895263671875,-1.0986328125,0.2578125,0.24427480916030533,-28.427480916030532,3.7709923664122136,250.88,104.96000000000001,266.24,16047.774512231
680,0.061279296875,-1.056884765625,0.0693359375,-22.229007633587784,-9.66412213740458,-114.10687022900763,222.72,107.52,281.6,16047.865623381
681,0.01171875,-0.793701171875,0.03369140625,33.6793893129771,33.541984732824424,100.94656488549617,171.52,115.2,296.96,16047.954959456
682,0.9560546875,-1.209716796875,0.01416015625,-42.0,-19.450381679389313,-56.916030534351144,271.36,87.04,263.68,16048.045997543
683,-0.148193359375,-0.9443359375,0.1484375,8.16793893129771,22.702290076335878,-74.19847328244275,225.28,107.52,281.6,16048.135989659
684,0.186279296875,-0.958251953125,0.0166015625,15.66412213740458,12.946564885496183,169.3587786259542,174.08,102.4,299.52,16048.224734696
685,0.186279296875,-0.958251953125,0.0166015625,15.66412213740458,12.946564885496183,169.3587786259542,174.08,102.4,299.52,16048.314383258
686,0.833251953125,-1.2861328125,-0.03076171875,-55.93893129770992,-38.33587786259542,-126.29007633587786,268.8,89.60000000000001,263.68,16048.405647004
687,-0.15576171875,-0.847900390625,0.18896484375,0.015267175572519083,28.12213740458015,-39.89312977099237,168.96,130.56,294.40000000000003,16048.4953996
688,0.336669921875,-0.953857421875,0.005859375,33.099236641221374,-13.251908396946565,175.02290076335876,215.04,107.52,286.72,16048.58459107
689,0.77783203125,-1.295166015625,0.08349609375,-73.34351145038168,-41.00763358778626,-164.793893129771,279.04,104.96000000000001,256.0,16048.674565851
690,-0.209716796875,-0.755615234375,0.134765625,23.236641221374043,44.44274809160305,-15.877862595419847,115.2,148.48,299.52,16048.76432683
691,0.56982421875,-0.99853515625,-0.1259765625,19.84732824427481,-3.9541984732824424,163.29770992366412,153.6,128.0,299.52,16048.855474585
692,0.540283203125,-1.19677734375,0.06396484375,-46.99236641221374,-19.96946564885496,-166.54961832061068,222.72,122.88,276.48,16048.945953601
693,0.540283203125,-1.19677734375,0.06396484375,-46.99236641221374,-19.96946564885496,-166.54961832061068,222.72,122.88,276.48,16049.034874736
694,-0.05224609375,-0.726318359375,0.128173828125,30.244274809160306,18.641221374045802,39.55725190839694,135.68,143.36,299.52,16049.124455742
695,0.449462890625,-1.126708984375,-0.089599609375,17.34351145038168,-38.19847328244275,141.70992366412213,215.04,107.52,284.16,16049.215584322
696,0.679443359375,-1.0390625,-0.136962890625,-42.12213740458015,39.06870229007633,-85.09923664122137,284.16,97.28,258.56,16049.305603023
697,-0.0283203125,-0.90185546875,0.03515625,7.007633587786259,17.12977099236641,-91.20610687022901,168.96,138.24,291.84000000000003,16049.394766644
698,0.297119140625,-0.91748046875,0.04638671875,17.526717557251906,91.37404580152672,107.77099236641222,133.12,133.12,302.08,16049.484564544
699,0.5595703125,-0.9599609375,0.160888671875,-6.061068702290076,54.167938931297705,-3.83206106870229,217.6,130.56,276.48,16049.575115223
700,0.5595703125,-0.9599609375,0.160888671875,-6.061068702290076,54.167938931297705,-3.83206106870229,217.6,130.56,276.48,16049.665127649
701,0.30712890625,-0.950927734375,0.08642578125,-9.022900763358779,-15.740458015267174,-18.091603053435115,209.92000000000002,140.8,276.48,16049.756016731
702,0.34228515625,-1.028564453125,0.05615234375,12.946564885496183,-7.740458015267175,14.839694656488549,202.24,138.24,279.04,16049.845202919
703,0.3564453125,-0.91943359375,0.142333984375,-6.564885496183206,-7.007633587786259,-18.885496183206108,212.48000000000002,130.56,279.04,16049.936044783
704,0.29638671875,-0.99169921875,-0.01611328125,4.702290076335878,-7.358778625954198,-22.916030534351144,197.12,125.44,286.72,16050.024320088
705,0.40625,-0.953857421875,0.095703125,-8.916030534351144,5.312977099236641,2.732824427480916,189.44,128.0,289.28000000000003,16050.115639874
706,0.3330078125,-0.9873046875,0.055908203125,0.6412213740458015,7.221374045801526,0.061068702290076333,186.88,130.56,289.28000000000003,16050.204711021
707,0.36474609375,-0.92822265625,0.078369140625,-8.65648854961832,-1.2061068702290076,1.4809160305343512,192.0,133.12,286.72,16050.295941444
708,0.36474609375,-0.92822265625,0.078369140625,-8.65648854961832,-1.2061068702290076,1.4809160305343512,192.0,133.12,286.72,16050.43087249
709,0.36328125,-0.947265625,0.05419921875,-1.8015267175572518,2.610687022900763,-14.534351145038167,197.12,133.12,284.16,16050.520568154
710,0.359130859375,-0.936767578125,0.06396484375,6.3206106870229,8.595419847328245,2.9923664122137406,192.0,135.68,284.16,16050.609871382
711,0.27099609375,-0.938720703125,0.073486328125,6.3206106870229,8.595419847328245,2.9923664122137406,192.0,135.68,284.16,16050.700287134
712,0.27099609375,-0.938720703125,0.073486328125,-2.2748091603053435,48.61068702290076,15.32824427480916,194.56,133.12,284.16,16050.789813021
713,0.388671875,-0.93701171875,0.095703125,-5.312977099236641,-1.129770992366412,-9.786259541984732,204.8,138.24,281.6,16050.881019038
714,0.2978515625,-0.992431640625,-0.01025390625,-13.694656488549617,8.549618320610687,2.030534351145038,202.24,138.24,281.6,16050.96966497
715,0.399169921875,-0.92724609375,0.18896484375,11.267175572519083,-4.076335877862595,-15.16030534351145,204.8,143.36,279.04,16051.060581459
716,0.311279296875,-1.00830078125,-0.061767578125,-14.213740458015266,4.244274809160305,4.870229007633587,197.12,130.56,284.16,16051.151087594
717,0.385498046875,-0.95166015625,0.13623046875,12.732824427480915,1.6946564885496183,1.0076335877862594,204.8,138.24,284.16,16051.284807829
718,0.342041015625,-0.98876953125,0.064453125,-9.206106870229007,-1.7862595419847327,6.702290076335878,204.8,130.56,281.6,16051.374823541
719,0.364990234375,-0.908447265625,0.107421875,-2.4580152671755724,-40.2442748091603,-12.473282442748092,209.92000000000002,130.56,279.04,16051.464807012
720,0.293701171875,-1.008056640625,-0.033203125,4.870229007633587,-21.48091603053435,-4.595419847328244,204.8,122.88,284.16,16051.55593499
721,0.3681640625,-0.952392578125,0.064208984375,-13.511450381679388,16.061068702290076,-6.351145038167939,207.36,122.88,284.16,16051.645267836
722,0.373046875,-1.03662109375,0.04638671875,-20.015267175572518,-11.938931297709923,15.98473282442748,207.36,122.88,284.16,16051.735583395
723,0.373046875,-1.03662109375,0.04638671875,-20.015267175572518,-11.938931297709923,15.98473282442748,209.92000000000002,130.56,281.6,16051.825552639
724,0.326171875,-0.953369140625,0.080322265625,11.511450381679388,5.786259541984733,-6.381679389312977,222.72,140.8,273.92,16051.915535663
725,0.256103515625,-1.012451171875,-0.01708984375,-10.6412213740458,4.305343511450381,7.32824427480916,222.72,135.68,273.92,16052.004489791
726,0.37451171875,-0.925048828125,0.10693359375,14.0,14.351145038167939,-2.8396946564885495,235.52,138.24,268.8,16052.094921004
727,0.310791015625,-0.993408203125,-0.019287109375,-0.5801526717557252,8.274809160305344,14.48854961832061,232.96,130.56,273.92,16052.185068177
728,0.306640625,-0.952880859375,0.146484375,-2.931297709923664,6.5038167938931295,-17.938931297709924,243.20000000000002,130.56,268.8,16052.274813153
729,0.2451171875,-0.994873046875,-0.009033203125,-0.8244274809160305,-1.5572519083969465,8.122137404580153,232.96,128.0,271.36,16052.364503562
730,0.2451171875,-0.994873046875,-0.009033203125,-0.8244274809160305,-1.5572519083969465,8.122137404580153,232.96,128.0,271.36,16052.455943049
731,0.320068359375,-0.914306640625,0.065185546875,1.4351145038167938,5.83206106870229,2.6259541984732824,238.08,125.44,271.36,16052.545940199
732,0.383056640625,-1.052978515625,0.0087890625,-3.7557251908396947,0.41221374045801523,3.633587786259542,240.64000000000001,125.44,271.36,16052.635950845
733,0.17578125,-1.043701171875,0.113037109375,-2.5343511450381677,-0.366412213740458,-17.12977099236641,238.08,128.0,271.36,16052.725600695
734,0.26220703125,-0.958740234375,-0.00537109375,-3.801526717557252,37.31297709923664,16.061068702290076,230.4,130.56,273.92,16052.814564821
735,0.4599609375,-0.976806640625,0.14990234375,-11.099236641221374,-27.801526717557252,1.3282442748091603,238.08,145.92000000000002,266.24,16052.905598602
736,0.120361328125,-1.085693359375,0.063232421875,-14.106870229007633,0.8091603053435115,-34.61068702290076,225.28,140.8,273.92,16052.995459675
737,0.2373046875,-0.918212890625,0.010009765625,2.5038167938931295,28.30534351145038,15.404580152671755,217.6,145.92000000000002,273.92,16053.084778661
738,0.2373046875,-0.918212890625,0.010009765625,2.5038167938931295,28.30534351145038,15.404580152671755,217.6,145.92000000000002,273.92,16053.174826638
739,0.424072265625,-0.984375,0.10791015625,-11.862595419847327,6.519083969465648,-3.2213740458015265,227.84,156.16,268.8,16053.265784922
740,0.167236328125,-1.030517578125,-0.164306640625,18.229007633587784,2.8396946564885495,-17.526717557251906,230.4,148.48,268.8,16053.354537053
741,0.384521484375,-0.994384765625,0.1005859375,-18.12213740458015,28.458015267175572,32.80916030534351,227.84,148.48,271.36,16053.444593915
742,0.2900390625,-1.060302734375,-0.040771484375,1.8473282442748091,-13.007633587786259,-26.900763358778626,235.52,153.6,266.24,16053.535025704
743,0.200439453125,-0.923828125,0.0419921875,-17.572519083969464,-14.595419847328243,24.183206106870227,227.84,153.6,271.36,16053.625365889
744,0.390869140625,-1.058837890625,-0.04248046875,16.97709923664122,5.099236641221374,1.6030534351145038,248.32,151.04,261.12,16053.715115277
745,0.228271484375,-0.99267578125,0.0390625,5.358778625954198,7.129770992366412,-30.15267175572519,248.32,145.92000000000002,263.68,16053.804767136
746,0.228271484375,-0.99267578125,0.0390625,5.358778625954198,7.129770992366412,-30.15267175572519,248.32,145.92000000000002,263.68,16053.89531487
747,0.25830078125,-0.98291015625,0.05322265625,-16.793893129770993,15.541984732824426,4.778625954198473,232.96,145.92000000000002,268.8,16053.984375521
748,0.389404296875,-0.978759765625,0.100830078125,5.66412213740458,-17.541984732824428,8.67175572519084,238.08,156.16,266.24,16054.075462758
749,0.28515625,-1.00732421875,0.018798828125,-19.526717557251906,6.6106870229007635,-5.175572519083969,243.20000000000002,151.04,263.68,16054.166552919
750,0.275390625,-0.96240234375,0.0478515625,4.961832061068702,-5.801526717557252,5.541984732824427,240.64000000000001,153.6,266.24,16054.255668063
751,0.051025390625,-0.98046875,-0.0205078125,-2.3664122137404577,-59.25190839694656,3.480916030534351,245.76,130.56,263.68,16054.344405309
752,0.31103515625,-1.009033203125,-0.05029296875,21.206106870229007,22.48854961832061,-0.9007633587786259,258.56,122.88,266.24,16054.43562406
753,0.26318359375,-0.97802734375,-0.017333984375,21.206106870229007,22.48854961832061,-0.9007633587786259,258.56,122.88,266.24,16054.525498841
754,0.26318359375,-0.97802734375,-0.017333984375,2.9923664122137406,5.022900763358779,8.885496183206106,263.68,102.4,266.24,16054.614752843
755,0.238037109375,-0.980712890625,0.037109375,1.4809160305343512,-1.2213740458015268,-3.0381679389312977,266.24,99.84,266.24,16054.705483426
756,0.258544921875,-1.002685546875,0.067626953125,-3.9389312977099236,5.175572519083969,20.77862595419847,273.92,99.84,263.68,16054.794536213
757,0.21728515625,-0.973388671875,0.017822265625,6.519083969465648,8.778625954198473,-17.740458015267176,284.16,97.28,258.56,16054.885620169
758,0.20263671875,-1.035400390625,0.08203125,-11.954198473282442,3.3893129770992365,8.48854961832061,273.92,99.84,263.68,16054.975195745
759,0.224609375,-0.9775390625,0.017822265625,7.175572519083969,4.076335877862595,-5.1603053435114505,279.04,99.84,261.12,16055.066087156
760,0.231689453125,-1.035888671875,0.04345703125,-0.24427480916030533,-1.8625954198473282,13.022900763358779,279.04,94.72,261.12,16055.156019965
761,0.231689453125,-1.035888671875,0.04345703125,-0.24427480916030533,-1.8625954198473282,13.022900763358779,279.04,94.72,261.12,16055.246000988
762,0.239013671875,-0.9619140625,0.046875,2.8854961832061066,0.1984732824427481,-2.4580152671755724,286.72,92.16,258.56,16055.334347299
763,0.182373046875,-1.007080078125,0.099853515625,-12.198473282442748,8.335877862595419,-13.725190839694656,289.28000000000003,89.60000000000001,258.56,16055.425637757
764,0.177978515625,-0.955810546875,0.107666015625,-1.66412213740458,2.595419847328244,10.0,279.04,97.28,261.12,16055.514769177
765,0.233154296875,-0.96142578125,0.029296875,2.549618320610687,-1.5419847328244274,7.175572519083969,294.40000000000003,94.72,256.0,16055.605140978
766,0.212158203125,-0.9853515625,0.060791015625,-16.137404580152673,8.80916030534351,-8.412213740458014,296.96,92.16,253.44,16055.695913415
767,0.20068359375,-1.06884765625,0.033203125,-2.3053435114503817,10.870229007633588,-4.305343511450381,289.28000000000003,104.96000000000001,253.44,16055.784631496
768,0.15966796875,-1.035400390625,-0.048095703125,5.709923664122138,-4.717557251908397,10.931297709923664,286.72,99.84,256.0,16055.876007794
769,0.15966796875,-1.035400390625,-0.048095703125,5.709923664122138,-4.717557251908397,10.931297709923664,286.72,99.84,256.0,16055.96565368
770,0.259033203125,-0.959228515625,0.086181640625,-3.5267175572519083,3.0839694656488548,-5.923664122137405,296.96,97.28,250.88,16056.054287545
771,0.142333984375,-1.0126953125,0.013671875,-4.641221374045801,5.114503816793893,-4.106870229007633,286.72,97.28,256.0,16056.145708343
772,0.20703125,-1.024169921875,0.043212890625,-0.15267175572519084,-0.6259541984732824,-2.854961832061069,291.84000000000003,99.84,253.44,16056.23518629
773,0.189697265625,-1.010009765625,0.030517578125,-2.3206106870229006,0.0,4.778625954198473,289.28000000000003,97.28,253.44,16056.324256063
774,0.203125,-0.991943359375,0.045166015625,10.50381679389313,-4.152671755725191,-14.015267175572518,294.40000000000003,97.28,250.88,16056.415098421
775,0.269287109375,-1.03857421875,0.134765625,-13.49618320610687,2.213740458015267,11.038167938931297,286.72,92.16,256.0,16056.505129202
776,0.190673828125,-1.008544921875,-0.006591796875,22.931297709923662,-5.32824427480916,-0.8244274809160305,289.28000000000003,89.60000000000001,256.0,16056.594770032
777,0.190673828125,-1.008544921875,-0.006591796875,22.931297709923662,-5.32824427480916,-0.8244274809160305,289.28000000000003,89.60000000000001,256.0,16056.684800606
778,0.218017578125,-1.010986328125,0.097900390625,-12.702290076335878,6.778625954198473,10.51908396946565,289.28000000000003,74.24,256.0,16056.776070607
779,0.19384765625,-0.97021484375,0.053955078125,10.045801526717558,2.717557251908397,-16.80916030534351,296.96,76.8,253.44,16056.865687923
780,0.19140625,-1.049560546875,0.081298828125,-8.15267175572519,11.129770992366412,-9.709923664122137,281.6,69.12,263.68,16056.955691298
781,0.265869140625,-1.0263671875,0.16162109375,7.099236641221374,-1.3129770992366412,10.625954198473282,279.04,74.24,263.68,16057.044375416
782,0.217041015625,-1.03857421875,0.0263671875,3.6946564885496183,-0.1984732824427481,4.580152671755725,291.84000000000003,58.88,261.12,16057.135676067
783,0.191162109375,-0.939208984375,0.118408203125,-3.8167938931297707,9.587786259541984,-4.595419847328244,294.40000000000003,53.76,258.56,16057.22442831
784,0.191162109375,-0.939208984375,0.118408203125,-3.8167938931297707,9.587786259541984,-4.595419847328244,294.40000000000003,53.76,258.56,16057.314996111
785,0.12939453125,-1.0185546875,0.055419921875,2.213740458015267,2.351145038167939,-0.6412213740458015,289.28000000000003,56.32,263.68,16057.405313103
786,0.168212890625,-1.05908203125,0.09765625,-10.076335877862595,6.091603053435114,-4.8396946564885495,286.72,53.76,266.24,16057.495279957
787,0.21630859375,-0.955810546875,0.1591796875,14.183206106870228,-8.48854961832061,1.2519083969465647,286.72,56.32,263.68,16057.58540301
788,0.222412109375,-1.001953125,0.061279296875,-6.931297709923664,-1.3587786259541985,-4.580152671755725,291.84000000000003,40.96,263.68,16057.675856624
789,0.218994140625,-0.981689453125,0.1142578125,2.4885496183206106,2.1526717557251906,0.2900763358778626,289.28000000000003,46.08,263.68,16057.765939752
790,0.208740234375,-0.995849609375,0.1142578125,-12.763358778625953,12.13740458015267,-7.419847328244274,291.84000000000003,46.08,263.68,16057.855635753
791,0.23388671875,-1.036865234375,0.128662109375,-0.15267175572519084,-4.442748091603053,6.564885496183206,286.72,53.76,263.68,16057.94590695
792,0.23388671875,-1.036865234375,0.128662109375,-0.15267175572519084,-4.442748091603053,6.564885496183206,286.72,53.76,263.68,16058.034689906
793,0.080322265625,-1.010009765625,0.135498046875,25.96946564885496,-7.66412213740458,-85.17557251908397,266.24,48.64,276.48,16058.125270731
794,0.23486328125,-0.91748046875,0.141357421875,15.893129770992365,0.9312977099236641,85.96946564885496,232.96,30.72,289.28000000000003,16058.215621781
795,0.5673828125,-1.10009765625,0.11083984375,0.732824427480916,-50.717557251908396,-3.3435114503816794,307.2,-2.56,250.88,16058.304608901
796,0.150146484375,-1.03466796875,0.0791015625,-18.641221374045802,42.274809160305345,-96.68702290076335,294.40000000000003,-10.24,258.56,16058.395260046
797,0.151611328125,-0.848876953125,0.28857421875,-9.114503816793892,10.870229007633588,5.374045801526718,199.68,23.04,299.52,16058.485297494
798,0.430419921875,-1.032470703125,0.20654296875,55.43511450381679,-54.61068702290076,8.076335877862595,204.8,20.48,296.96,16058.57567189
799,0.482421875,-0.97509765625,0.181396484375,25.083969465648853,-43.75572519083969,-26.30534351145038,212.48000000000002,-51.2,286.72,16058.66601631
800,0.482421875,-0.97509765625,0.181396484375,25.083969465648853,-43.75572519083969,-26.30534351145038,212.48000000000002,-51.2,286.72,16058.756173928
801,0.440185546875,-0.88427734375,0.220703125,29.61832061068702,9.282442748091603,-61.404580152671755,151.04,-89.60000000000001,294.40000000000003,16058.845625413
802,0.6083984375,-0.8779296875,0.176513671875,-5.572519083969466,-10.549618320610687,-49.9236641221374,115.2,-110.08,294.40000000000003,16058.935665813
803,0.67919921875,-0.912353515625,0.426025390625,-49.847328244274806,5.862595419847328,-45.282442748091604,58.88,-76.8,309.76,16059.025191078
804,0.444091796875,-0.605712890625,0.3583984375,31.31297709923664,52.27480916030534,-17.12977099236641,20.48,-61.44,314.88,16059.11483896
805,0.510009765625,-0.603515625,0.232177734375,127.26717557251908,7.557251908396946,-99.5267175572519,-33.28,-122.88,291.84000000000003,16059.20467798
806,0.612060546875,-0.435546875,0.101806640625,125.46564885496183,-7.66412213740458,-104.87022900763358,-79.36,-202.24,248.32,16059.295622294
807,0.918701171875,-0.3125,0.5771484375,47.541984732824424,-56.030534351145036,-51.93893129770992,-79.36,-202.24,248.32,16059.384639175
808,0.918701171875,-0.3125,0.5771484375,47.541984732824424,-56.030534351145036,-51.93893129770992,-171.52,-281.6,148.48,16059.475645621
809,1.0986328125,-0.300048828125,0.4716796875,39.63358778625954,-12.15267175572519,-14.351145038167939,-207.36,-294.40000000000003,110.08,16059.566003893
810,0.967529296875,-0.130615234375,0.34521484375,6.2748091603053435,14.6412213740458,-19.893129770992367,-227.84,-312.32,66.56,16059.656003959
811,0.834716796875,-0.02783203125,0.23095703125,14.580152671755725,28.80916030534351,-12.854961832061068,-230.4,-317.44,61.44,16059.744467614
812,1.142822265625,-0.17822265625,0.454345703125,-7.129770992366412,-13.694656488549617,-7.129770992366412,-232.96,-322.56,51.2,16059.835635999
813,0.965576171875,-0.180908203125,0.54736328125,-24.061068702290076,-16.030534351145036,-13.98473282442748,-238.08,-317.44,48.64,16059.925652824
814,0.868408203125,-0.102294921875,0.51123046875,-23.64885496183206,13.694656488549617,-19.099236641221374,-263.68,-296.96,51.2,16060.014589545
815,0.868408203125,-0.102294921875,0.51123046875,-23.64885496183206,13.694656488549617,-19.099236641221374,-263.68,-296.96,51.2,16060.105309578
816,1.114990234375,-0.074951171875,0.68017578125,22.0,53.038167938931295,-63.49618320610687,-266.24,-299.52,51.2,16060.195384743
817,1.024169921875,-0.005126953125,0.7666015625,152.5648854961832,55.41984732824427,-53.83206106870229,-256.0,-343.04,-10.24,16060.284806207
818,0.794921875,0.237548828125,0.333740234375,66.47328244274809,62.87022900763358,-88.33587786259541,-268.8,-386.56,-161.28,16060.374598904
819,0.660888671875,0.49267578125,0.34521484375,157.02290076335876,-18.885496183206108,-42.900763358778626,-250.88,-404.48,-253.44,16060.465661242
820,0.756103515625,0.627685546875,0.3310546875,78.97709923664122,35.55725190839694,-18.12213740458015,-266.24,-366.08,-422.40000000000003,16060.555663714
821,0.63916015625,0.664794921875,0.42041015625,60.2442748091603,29.14503816793893,12.99236641221374,-248.32,-360.96,-476.16,16060.64441279
822,0.612060546875,0.64208984375,0.22998046875,32.900763358778626,27.32824427480916,-4.7328244274809155,-232.96,-343.04,-527.36,16060.735557926
823,0.612060546875,0.64208984375,0.22998046875,32.900763358778626,27.32824427480916,-4.7328244274809155,-232.96,-343.04,-527.36,16060.82569368
